"Wavelength (A)" Specta "Best Fitting Model" "Non-parm Extinction Curve" "Non-param Adjusted Continuum"
4051.13 0.595652 0.290154 0.0 0.881144
4051.46 0.598052 0.316007 0.0 0.880546
4051.79 0.59962 0.341877 0.0 0.879948
4052.13 0.600235 0.368913 0.0 0.87935
4052.46 0.600294 0.397119 0.0 0.878753
4052.79 0.600232 0.425287 0.0 0.878155
4053.12 0.600182 0.451589 0.0 0.877558
4053.45 0.60003 0.474575 0.0 0.876962
4053.78 0.599655 0.493883 0.0 0.876366
4054.12 0.598952 0.510089 0.0 0.87577
4054.45 0.597818 0.523963 0.0 0.875176
4054.78 0.596183 0.535924 0.0 0.874581
4055.11 0.594061 0.545978 0.0 0.873988
4055.44 0.591482 0.553958 0.0 0.873396
4055.77 0.588542 0.559839 0.0 0.872804
4056.11 0.585417 0.563864 0.0 0.872214
4056.44 0.582279 0.566455 0.0 0.871625
4056.77 0.579218 0.568047 0.0 0.871037
4057.1 0.576278 0.569008 0.0 0.87045
4057.43 0.573547 0.569654 0.0 0.869864
4057.77 0.571296 0.570222 0.0 0.86928
4058.1 0.569835 0.570826 0.0 0.868698
4058.43 0.569135 0.571404 0.0 0.868117
4058.76 0.568585 0.571691 0.0 0.867537
4059.09 0.567536 0.571346 0.0 0.866959
4059.43 0.56568 0.570208 7.23721 0.866383
4059.76 0.562976 0.568435 7.26594 0.865809
4060.09 0.559526 0.566222 7.30216 0.865237
4060.42 0.556204 0.563723 7.3397 0.864666
4060.76 0.554164 0.561091 7.37128 0.864098
4061.09 0.55396 0.558565 7.37143 0.863532
4061.42 0.554665 0.556452 7.37159 0.862968
4061.75 0.555152 0.554749 7.38002 0.862407
4062.08 0.554935 0.552868 7.39834 0.861847
4062.42 0.554244 0.550376 7.41673 0.861291
4062.75 0.55334 0.547585 7.4366 0.860736
4063.08 0.552388 0.54496 7.45703 0.860185
4063.41 0.551506 0.542701 7.47706 0.859635
4063.75 0.550735 0.540868 7.48628 0.859089
4064.08 0.549844 0.539759 7.49552 0.858545
4064.41 0.54855 0.543337 7.50831 0.858005
4064.74 0.546945 0.542842 7.52819 0.857467
4065.08 0.545703 0.542933 7.54816 0.856932
4065.41 0.545497 0.543733 7.55592 0.856401
4065.74 0.54632 0.545339 7.55644 0.855872
4066.07 0.547682 0.54776 7.55696 0.855347
4066.41 0.549142 0.550878 7.54224 0.854825
4066.74 0.55058 0.554454 7.52629 0.854306
4067.07 0.551974 0.558193 7.50795 0.853791
4067.41 0.55353 0.561814 7.48097 0.85328
4067.74 0.55593 0.565108 7.45413 0.852772
4068.07 0.559866 0.567963 7.41549 0.852267
4068.4 0.564927 0.570355 7.36594 0.851767
4068.74 0.569632 0.572312 7.31688 0.85127
4069.07 0.572658 0.573875 7.29597 0.850777
4069.4 0.574105 0.575076 7.28163 0.850288
4069.74 0.574698 0.575941 7.26977 0.849803
4070.07 0.575018 0.576515 7.27828 0.849323
4070.4 0.575217 0.576861 7.28681 0.848846
4070.73 0.575375 0.577045 7.29223 0.848374
4071.07 0.575633 0.577114 7.29302 0.847906
4071.4 0.576214 0.577069 7.29381 0.847443
4071.73 0.577288 0.576848 7.29008 0.846984
4072.07 0.578412 0.576347 7.28442 0.846529
4072.4 0.578786 0.575472 7.27878 0.846079
4072.73 0.577847 0.574185 7.29006 0.845634
4073.07 0.575996 0.572529 7.30137 0.845194
4073.4 0.573877 0.570631 7.31311 0.844759
4073.73 0.572034 0.568664 7.32586 0.844328
4074.07 0.570837 0.566781 7.33863 0.843903
4074.4 0.570606 0.565083 7.34352 0.843482
4074.73 0.571075 0.563609 7.34312 0.843067
4075.07 0.571533 0.562339 7.34273 0.842657
4075.4 0.571389 0.561245 7.34036 0.842252
4075.73 0.57077 0.560324 7.33777 0.841853
4076.07 0.570045 0.559616 7.33508 0.841459
4076.4 0.569476 0.559205 7.33198 0.84107
4076.73 0.569095 0.559194 7.32888 0.840687
4077.07 0.568903 0.559676 7.32934 0.84031
4077.4 0.569031 0.560696 7.33334 0.839939
4077.73 0.569729 0.562276 7.33735 0.839573
4078.07 0.571234 0.564417 7.32472 0.839213
4078.4 0.573629 0.567097 7.3081 0.838859
4078.74 0.576928 0.570289 7.29003 0.838512
4079.07 0.58091 0.573968 7.25951 0.83817
4079.4 0.584661 0.578089 7.22918 0.837835
4079.74 0.587171 0.582556 7.20247 0.837505
4080.07 0.588349 0.58724 7.18081 0.837182
4080.4 0.589271 0.591998 7.15924 0.836866
4080.74 0.591033 0.596686 7.12684 0.836556
4081.07 0.594201 0.60118 7.09032 0.836252
4081.41 0.599034 0.605408 7.05376 0.835955
4081.74 0.605484 0.609335 7.00149 0.835665
4082.07 0.61234 0.612949 6.9498 0.835382
4082.41 0.618128 0.616246 6.90442 0.835105
4082.74 0.622049 0.619222 6.87136 0.834836
4083.08 0.62438 0.621875 6.83854 0.834573
4083.41 0.625511 0.62422 6.81869 0.834317
4083.74 0.626072 0.62632 6.8064 0.834069
4084.08 0.626864 0.628258 6.79414 0.833828
4084.41 0.628529 0.630139 6.77618 0.833594
4084.75 0.630919 0.632085 6.7579 0.833367
4085.08 0.633647 0.634193 6.73789 0.833148
4085.42 0.636412 0.636503 6.71238 0.832936
4085.75 0.639081 0.639021 6.68701 0.832732
4086.08 0.64155 0.64174 6.66587 0.832536
4086.42 0.643782 0.644623 6.64813 0.832347
4086.75 0.645807 0.647613 6.63047 0.832166
4087.09 0.647643 0.650651 6.62329 0.831993
4087.42 0.649227 0.653678 6.61784 0.831828
4087.76 0.650464 0.6566 6.61251 0.831671
4088.09 0.651369 0.659317 6.60778 0.831522
4088.42 0.652225 0.661736 6.60306 0.831381
4088.76 0.653348 0.663782 6.59207 0.831248
4089.09 0.65491 0.665405 6.57424 0.831124
4089.43 0.65693 0.666569 6.55648 0.831008
4089.76 0.659346 0.667245 6.53483 0.830901
4090.1 0.661513 0.667398 6.51221 0.830802
4090.43 0.662518 0.666988 6.49367 0.830711
4090.77 0.661742 0.665972 6.51213 0.83063
4091.1 0.659456 0.664333 6.53068 0.830557
4091.44 0.656098 0.662101 6.5632 0.830493
4091.77 0.652151 0.659329 6.61634 0.830438
4092.11 0.648155 0.656077 6.67013 0.830392
4092.44 0.644583 0.6524 6.71235 0.830354
4092.78 0.641209 0.648334 6.75019 0.830326
4093.11 0.637417 0.643898 6.78877 0.830308
4093.45 0.632705 0.639113 6.84079 0.830298
4093.78 0.626999 0.634032 6.89341 0.830298
4094.12 0.620327 0.62873 6.95037 0.830307
4094.45 0.61309 0.623295 7.0152 0.830326
4094.79 0.606246 0.617803 7.08095 0.830354
4095.12 0.600723 0.6123 7.14133 0.830391
4095.46 0.596544 0.606793 7.19918 0.830437
4095.79 0.593131 0.601253 7.25774 0.830492
4096.13 0.589873 0.59563 7.30914 0.830556
4096.46 0.586059 0.589887 7.36087 0.830629
4096.8 0.580959 0.584013 7.4159 0.83071
4097.13 0.57464 0.578029 7.47843 0.8308
4097.47 0.568574 0.571993 7.54176 0.830898
4097.8 0.564256 0.565984 7.59208 0.831004
4098.14 0.561391 0.560089 7.63371 0.831119
4098.47 0.558312 0.554384 7.67568 0.831241
4098.81 0.553675 0.54894 7.73675 0.831371
4099.14 0.547954 0.543821 7.80025 0.831509
4099.48 0.542205 0.539097 7.86273 0.831654
4099.81 0.53723 0.534843 7.91992 0.831807
4100.15 0.533318 0.531145 7.97775 0.831967
4100.48 0.53068 0.528082 8.01853 0.832134
4100.82 0.529222 0.525719 8.04516 0.832308
4101.16 0.528581 0.524086 8.07192 0.832489
4101.49 0.528404 0.523187 8.08605 0.832677
4101.83 0.528427 0.523016 8.0983 0.832871
4102.16 0.528424 0.52356 8.10776 0.833072
4102.5 0.528396 0.524831 8.10495 0.83328
4102.83 0.528873 0.526863 8.10214 0.833494
4103.17 0.53045 0.5297 8.08146 0.833714
4103.51 0.533488 0.533362 8.04351 0.83394
4103.84 0.538116 0.53782 8.00581 0.834171
4104.18 0.544319 0.542976 7.93498 0.834409
4104.51 0.55116 0.54866 7.85811 0.834652
4104.85 0.557317 0.554653 7.78601 0.834901
4105.18 0.562156 0.56074 7.73629 0.835155
4105.52 0.566831 0.566744 7.68705 0.835415
4105.86 0.572731 0.572539 7.63271 0.835679
4106.19 0.579702 0.57804 7.57263 0.835949
4106.53 0.585903 0.583182 7.51325 0.836224
4106.86 0.589693 0.587909 7.49169 0.836503
4107.2 0.59168 0.592144 7.48031 0.836787
4107.54 0.593513 0.595805 7.466 0.837075
4107.87 0.596304 0.598844 7.42759 0.837368
4108.21 0.59958 0.60127 7.38946 0.837665
4108.54 0.602592 0.603146 7.35697 0.837966
4108.88 0.604877 0.604577 7.33172 0.838271
4109.22 0.606313 0.605701 7.30659 0.83858
4109.55 0.606878 0.60665 7.2923 0.838893
4109.89 0.607249 0.607516 7.28156 0.839209
4110.23 0.608459 0.608355 7.26939 0.839529
4110.56 0.61126 0.609206 7.23989 0.839852
4110.9 0.61551 0.610103 7.21056 0.840179
4111.23 0.620881 0.611086 7.17206 0.840508
4111.57 0.626781 0.612203 7.12 0.840841
4111.91 0.632276 0.613509 7.06851 0.841176
4112.24 0.63643 0.61504 7.04234 0.841514
4112.58 0.638526 0.616797 7.02567 0.841855
4112.92 0.637963 0.61875 7.01144 0.842198
4113.25 0.634654 0.620843 7.04206 0.842544
4113.59 0.630272 0.623014 7.07289 0.842891
4113.93 0.62685 0.625192 7.09236 0.843241
4114.26 0.625563 0.627314 7.09271 0.843593
4114.6 0.626398 0.629328 7.09306 0.843947
4114.94 0.629176 0.631188 7.08062 0.844302
4115.27 0.632894 0.632839 7.06281 0.844659
4115.61 0.636066 0.634219 7.04581 0.845018
4115.95 0.63753 0.635266 7.05301 0.845377
4116.28 0.637338 0.635927 7.06023 0.845738
4116.62 0.635829 0.63617 7.07397 0.8461
4116.96 0.633623 0.636012 7.09955 0.846463
4117.29 0.631757 0.635521 7.12526 0.846827
4117.63 0.631196 0.634792 7.13641 0.847192
4117.97 0.631776 0.633927 7.14083 0.847557
4118.3 0.632637 0.632998 7.14521 0.847922
4118.64 0.633047 0.63204 7.14689 0.848288
4118.98 0.632807 0.631047 7.14858 0.848654
4119.32 0.63185 0.630013 7.15478 0.84902
4119.65 0.630361 0.628962 7.16966 0.849386
4119.99 0.628909 0.627961 7.18459 0.849752
4120.33 0.628049 0.627108 7.18671 0.850117
4120.66 0.627827 0.626511 7.18259 0.850482
4121.0 0.627968 0.626242 7.17851 0.850847
4121.34 0.628196 0.626323 7.18412 0.851211
4121.68 0.628261 0.626725 7.18974 0.851574
4122.01 0.627921 0.627388 7.19909 0.851936
4122.35 0.627047 0.628245 7.2159 0.852296
4122.69 0.625684 0.629243 7.23278 0.852656
4123.02 0.623907 0.630336 7.254 0.853015
4123.36 0.621996 0.631467 7.27747 0.853371
4123.7 0.620363 0.632562 7.30105 0.853727
4124.04 0.619381 0.633541 7.31283 0.85408
4124.37 0.61926 0.63433 7.32462 0.854432
4124.71 0.620166 0.63488 7.32575 0.854782
4125.05 0.621959 0.635177 7.30534 0.85513
4125.39 0.624023 0.635241 7.28501 0.855475
4125.72 0.625732 0.635104 7.27327 0.855818
4126.06 0.626822 0.634774 7.26585 0.856159
4126.4 0.627265 0.634213 7.25844 0.856497
4126.74 0.627044 0.633351 7.26733 0.856832
4127.07 0.626181 0.632099 7.27628 0.857165
4127.41 0.624706 0.630375 7.28565 0.857494
4127.75 0.622817 0.628128 7.29586 0.857821
4128.09 0.620965 0.62538 7.30609 0.858144
4128.43 0.619567 0.622212 7.31799 0.858463
4128.76 0.618409 0.618741 7.33075 0.85878
4129.1 0.616864 0.615078 7.34356 0.859092
4129.44 0.614544 0.61132 7.36101 0.859401
4129.78 0.612017 0.607526 7.37852 0.859706
4130.11 0.610087 0.603744 7.3919 0.860007
4130.45 0.609297 0.600043 7.39717 0.860304
4130.79 0.609793 0.596531 7.40244 0.860597
4131.13 0.611572 0.593339 7.39994 0.860885
4131.47 0.613289 0.590606 7.39373 0.861169
4131.8 0.612759 0.588425 7.38838 0.861448
4132.14 0.608682 0.586822 7.44258 0.861722
4132.48 0.603202 0.585771 7.49738 0.861992
4132.82 0.59926 0.585253 7.53832 0.862256
4133.16 0.598206 0.585283 7.55286 0.862516
4133.5 0.599038 0.585923 7.56745 0.86277
4133.83 0.600626 0.587262 7.56224 0.863018
4134.17 0.602462 0.589364 7.54819 0.863261
4134.51 0.604414 0.592217 7.53405 0.863499
4134.85 0.606367 0.595723 7.51561 0.863731
4135.19 0.608248 0.599731 7.49723 0.863956
4135.53 0.609991 0.604077 7.47936 0.864176
4135.86 0.61164 0.608634 7.46231 0.86439
4136.2 0.613384 0.61331 7.44532 0.864597
4136.54 0.615407 0.618026 7.42861 0.864798
4136.88 0.617705 0.622673 7.41204 0.864992
4137.22 0.620169 0.627099 7.39567 0.86518
4137.56 0.622653 0.631099 7.38226 0.865361
4137.89 0.624888 0.634447 7.36888 0.865535
4138.23 0.626588 0.636939 7.35962 0.865702
4138.57 0.627778 0.638438 7.35668 0.865863
4138.91 0.628893 0.638882 7.35375 0.866017
4139.25 0.630296 0.63827 7.34472 0.866165
4139.59 0.631445 0.636653 7.33351 0.866306
4139.93 0.63131 0.634112 7.32393 0.866442
4140.26 0.629261 0.63075 7.33356 0.866571
4140.6 0.625965 0.626687 7.34322 0.866693
4140.94 0.622332 0.622067 7.36281 0.86681
4141.28 0.618776 0.617063 7.39627 0.866922
4141.62 0.615097 0.61186 7.42996 0.867027
4141.96 0.611085 0.60665 7.48074 0.867127
4142.3 0.606754 0.601616 7.53732 0.867221
4142.64 0.602225 0.596922 7.59441 0.86731
4142.98 0.597682 0.592691 7.65093 0.867393
4143.31 0.593473 0.589003 7.70809 0.867471
4143.65 0.589971 0.5859 7.75518 0.867544
4143.99 0.587389 0.583396 7.78969 0.867612
4144.33 0.585756 0.5815 7.82444 0.867675
4144.67 0.585072 0.580225 7.83851 0.867734
4145.01 0.585193 0.579614 7.84735 0.867787
4145.35 0.585907 0.57972 7.85514 0.867836
4145.69 0.586868 0.580565 7.85667 0.86788
4146.03 0.587372 0.582101 7.85821 0.86792
4146.37 0.586701 0.584214 7.86312 0.867955
4146.71 0.585249 0.586729 7.87154 0.867986
4147.05 0.584546 0.589436 7.87997 0.868013
4147.38 0.58591 0.592131 7.86618 0.868036
4147.72 0.588958 0.59466 7.84816 0.868055
4148.06 0.59262 0.596934 7.82903 0.86807
4148.4 0.59585 0.59891 7.80489 0.868082
4148.74 0.597664 0.600548 7.78086 0.86809
4149.08 0.597148 0.601804 7.77544 0.868094
4149.42 0.594575 0.602628 7.78615 0.868095
4149.76 0.591304 0.602979 7.79689 0.868092
4150.1 0.58866 0.602842 7.81446 0.868086
4150.44 0.587563 0.602264 7.83299 0.868077
4150.78 0.588779 0.601355 7.84182 0.868065
4151.12 0.592196 0.600249 7.81871 0.86805
4151.46 0.59591 0.599058 7.79571 0.868032
4151.8 0.597898 0.597857 7.78351 0.868011
4152.14 0.597695 0.596672 7.77898 0.867988
4152.48 0.596085 0.595507 7.77445 0.867962
4152.82 0.593858 0.594379 7.79077 0.867934
4153.16 0.591643 0.593332 7.80861 0.867903
4153.5 0.590022 0.592439 7.82076 0.86787
4153.84 0.589436 0.591776 7.81854 0.867835
4154.18 0.590081 0.591392 7.81632 0.867798
4154.52 0.592089 0.591303 7.80216 0.867759
4154.86 0.595105 0.591513 7.78127 0.867718
4155.2 0.598434 0.592035 7.76046 0.867675
4155.54 0.601419 0.592893 7.74733 0.867631
4155.88 0.603607 0.594133 7.73431 0.867585
4156.22 0.604598 0.595792 7.72772 0.867537
4156.56 0.604413 0.597876 7.73341 0.867488
4156.9 0.603699 0.600362 7.7391 0.867438
4157.24 0.603157 0.603216 7.74195 0.867387
4157.58 0.603491 0.6064 7.74356 0.867335
4157.92 0.605404 0.609884 7.74248 0.867281
4158.26 0.609224 0.613654 7.69117 0.867227
4158.6 0.61398 0.617677 7.64035 0.867172
4158.94 0.618443 0.621887 7.59525 0.867117
4159.28 0.622138 0.626195 7.55814 0.867061
4159.62 0.625556 0.630493 7.52129 0.867004
4159.96 0.629179 0.634678 7.48873 0.866947
4160.3 0.632876 0.638662 7.45763 0.86689
4160.64 0.636211 0.642388 7.42773 0.866832
4160.98 0.63886 0.645796 7.40561 0.866775
4161.32 0.640832 0.648815 7.38358 0.866718
4161.66 0.642201 0.651358 7.36253 0.86666
4162.0 0.64319 0.653341 7.34252 0.866603
4162.34 0.644182 0.654715 7.3226 0.866546
4162.68 0.64551 0.655467 7.3018 0.86649
4163.02 0.647121 0.655642 7.28089 0.866434
4163.36 0.648797 0.655328 7.26195 0.866379
4163.7 0.650211 0.65462 7.25121 0.866325
4164.05 0.650776 0.653582 7.2405 0.866271
4164.39 0.649898 0.652241 7.24882 0.866218
4164.73 0.647566 0.650601 7.27307 0.866167
4165.07 0.64428 0.64866 7.29745 0.866116
4165.41 0.640552 0.64643 7.33918 0.866067
4165.75 0.63685 0.643968 7.38313 0.866019
4166.09 0.633623 0.641366 7.42282 0.865972
4166.43 0.631102 0.63873 7.44978 0.865927
4166.77 0.629106 0.636137 7.47689 0.865884
4167.11 0.627403 0.633609 7.508 0.865842
4167.45 0.625692 0.631111 7.54165 0.865802
4167.79 0.623623 0.628581 7.57553 0.865764
4168.14 0.620946 0.625962 7.61172 0.865728
4168.48 0.617852 0.623223 7.64821 0.865695
4168.82 0.614644 0.620374 7.68482 0.865663
4169.16 0.611598 0.61746 7.7214 0.865634
4169.5 0.60895 0.61452 7.75824 0.865607
4169.84 0.606895 0.611566 7.79356 0.865583
4170.18 0.605254 0.608581 7.82837 0.865561
4170.52 0.603631 0.60554 7.86282 0.865542
4170.86 0.601698 0.602437 7.88943 0.865526
4171.21 0.599364 0.599296 7.91618 0.865513
4171.55 0.596588 0.596179 7.94063 0.865502
4171.89 0.593498 0.593158 7.96194 0.865495
4172.23 0.590425 0.590299 7.98334 0.865491
4172.57 0.587671 0.58763 8.01469 0.865491
4172.91 0.585246 0.585149 8.04879 0.865494
4173.25 0.583029 0.582848 8.08374 0.8655
4173.6 0.581012 0.580743 8.12235 0.86551
4173.94 0.579485 0.578893 8.16125 0.865524
4174.28 0.57877 0.577396 8.17845 0.865541
4174.62 0.57897 0.57636 8.17564 0.865563
4174.96 0.579976 0.575867 8.17284 0.865588
4175.3 0.581622 0.575952 8.14895 0.865618
4175.64 0.583467 0.576576 8.12251 0.865652
4175.99 0.584972 0.57764 8.10089 0.86569
4176.33 0.58578 0.579026 8.09315 0.865732
4176.67 0.585874 0.580626 8.08542 0.865779
4177.01 0.585311 0.582347 8.09128 0.865831
4177.35 0.584622 0.584124 8.10553 0.865887
4177.7 0.58468 0.585932 8.11982 0.865948
4178.04 0.586134 0.587761 8.10186 0.866014
4178.38 0.588646 0.58959 8.08351 0.866085
4178.72 0.591627 0.591398 8.06379 0.866162
4179.06 0.594648 0.593166 8.04152 0.866243
4179.4 0.597522 0.594872 8.01933 0.86633
4179.75 0.600086 0.596504 8.00244 0.866422
4180.09 0.602255 0.598084 7.98761 0.866519
4180.43 0.603982 0.599666 7.97346 0.866623
4180.77 0.60525 0.601304 7.96588 0.866732
4181.11 0.606117 0.603034 7.95831 0.866846
4181.46 0.60666 0.60485 7.95284 0.866967
4181.8 0.606982 0.606702 7.94987 0.867094
4182.14 0.607215 0.6085 7.94689 0.867226
4182.48 0.607504 0.610154 7.94088 0.867364
4182.83 0.608031 0.611607 7.93425 0.867508
4183.17 0.609001 0.612844 7.92384 0.867657
4183.51 0.610642 0.613878 7.89815 0.867812
4183.85 0.613243 0.614724 7.87258 0.867972
4184.19 0.617053 0.61538 7.84079 0.868138
4184.54 0.621513 0.61584 7.80442 0.868309
4184.88 0.625388 0.616108 7.7683 0.868485
4185.22 0.627695 0.616215 7.74486 0.868666
4185.56 0.628757 0.616234 7.72233 0.868852
4185.91 0.629284 0.616269 7.70709 0.869043
4186.25 0.629716 0.616413 7.70781 0.869238
4186.59 0.630048 0.616704 7.70852 0.869439
4186.93 0.630234 0.617124 7.71538 0.869644
4187.28 0.630218 0.617609 7.72508 0.869854
4187.62 0.629936 0.618084 7.73481 0.870068
4187.96 0.629379 0.618516 7.74464 0.870286
4188.3 0.628709 0.618936 7.75448 0.870509
4188.65 0.628125 0.619437 7.76428 0.870736
4188.99 0.627716 0.620136 7.77399 0.870967
4189.33 0.627446 0.62114 7.78373 0.871203
4189.68 0.627277 0.622509 7.79429 0.871442
4190.02 0.627217 0.624238 7.80508 0.871685
4190.36 0.627296 0.626261 7.81444 0.871932
4190.7 0.627568 0.628457 7.81717 0.872183
4191.05 0.628146 0.63067 7.8199 0.872437
4191.39 0.629142 0.63273 7.81681 0.872695
4191.73 0.63045 0.634473 7.80904 0.872956
4192.08 0.631781 0.635765 7.80129 0.873221
4192.42 0.632819 0.636516 7.80876 0.873489
4192.76 0.63317 0.636686 7.81739 0.87376
4193.1 0.632418 0.636273 7.82906 0.874034
4193.45 0.630404 0.635293 7.84767 0.874312
4193.79 0.627399 0.633769 7.86634 0.874592
4194.13 0.623729 0.631724 7.89056 0.874875
4194.48 0.619854 0.629188 7.91746 0.875161
4194.82 0.61632 0.626218 7.9451 0.87545
4195.16 0.613518 0.62288 7.9823 0.875741
4195.51 0.611325 0.619252 8.01978 0.876035
4195.85 0.609517 0.615405 8.05096 0.876331
4196.19 0.607971 0.611394 8.07389 0.87663
4196.54 0.606687 0.607265 8.09692 0.876931
4196.88 0.605622 0.603074 8.109 0.877234
4197.22 0.604376 0.598918 8.11864 0.87754
4197.57 0.602396 0.594933 8.13443 0.877847
4197.91 0.599416 0.591277 8.17562 0.878156
4198.25 0.595817 0.58809 8.21713 0.878467
4198.6 0.592075 0.585463 8.2606 0.87878
4198.94 0.588781 0.583425 8.30564 0.879095
4199.28 0.586616 0.581958 8.35106 0.879411
4199.63 0.586118 0.581023 8.36476 0.879729
4199.97 0.587144 0.580613 8.37701 0.880048
4200.32 0.589358 0.580782 8.37406 0.880369
4200.66 0.592355 0.581611 8.34122 0.88069
4201.0 0.595625 0.583178 8.30857 0.881013
4201.35 0.598731 0.585525 8.25973 0.881338
4201.69 0.602049 0.58862 8.20495 0.881663
4202.03 0.606408 0.592343 8.15126 0.881989
4202.38 0.611977 0.596545 8.10292 0.882316
4202.72 0.616926 0.601092 8.055 0.882643
4203.07 0.619147 0.605892 8.03799 0.882972
4203.41 0.618759 0.610909 8.05383 0.883301
4203.75 0.618215 0.616153 8.06972 0.88363
4204.1 0.61972 0.621622 8.03564 0.88396
4204.44 0.623303 0.627268 7.99407 0.884291
4204.79 0.628184 0.633007 7.95188 0.884621
4205.13 0.633641 0.638724 7.90723 0.884952
4205.47 0.639067 0.644302 7.86294 0.885283
4205.82 0.643912 0.649656 7.8219 0.885614
4206.16 0.648183 0.654752 7.78284 0.885944
4206.51 0.652284 0.659572 7.74392 0.886275
4206.85 0.656549 0.664092 7.69654 0.886605
4207.19 0.661014 0.668256 7.64959 0.886935
4207.54 0.66564 0.671988 7.6017 0.887265
4207.88 0.670222 0.6752 7.55225 0.887594
4208.23 0.674333 0.677837 7.50328 0.887923
4208.57 0.67755 0.679903 7.47932 0.88825
4208.92 0.679578 0.68146 7.46202 0.888578
4209.26 0.680182 0.6826 7.45057 0.888904
4209.6 0.679412 0.683403 7.46638 0.889229
4209.95 0.677994 0.68389 7.48224 0.889554
4210.29 0.676717 0.684009 7.49936 0.889877
4210.64 0.675665 0.683664 7.51747 0.890199
4210.98 0.67433 0.682766 7.53564 0.89052
4211.33 0.672391 0.681284 7.54416 0.890839
4211.67 0.670502 0.679276 7.55218 0.891157
4212.02 0.669593 0.676899 7.54782 0.891474
4212.36 0.670221 0.674355 7.51927 0.891789
4212.71 0.672373 0.671832 7.49089 0.892102
4213.05 0.675798 0.669467 7.45015 0.892414
4213.4 0.678467 0.667334 7.40506 0.892724
4213.74 0.677375 0.665465 7.37903 0.893031
4214.08 0.671221 0.663886 7.4975 0.893337
4214.43 0.663576 0.662651 7.61886 0.893641
4214.77 0.658725 0.661842 7.69321 0.893942
4215.12 0.657629 0.661536 7.71947 0.894241
4215.46 0.657969 0.661773 7.74586 0.894538
4215.81 0.657696 0.662554 7.76436 0.894833
4216.15 0.65702 0.663845 7.782 0.895125
4216.5 0.656913 0.665588 7.79354 0.895414
4216.84 0.657985 0.667748 7.7898 0.895701
4217.19 0.660208 0.670327 7.78606 0.895984
4217.53 0.663453 0.673325 7.77219 0.896265
4217.88 0.667223 0.676706 7.75355 0.896543
4218.22 0.670789 0.680374 7.7348 0.896818
4218.57 0.673608 0.684153 7.71373 0.89709
4218.91 0.675747 0.68777 7.69274 0.897359
4219.26 0.677402 0.690901 7.6743 0.897625
4219.6 0.678884 0.693228 7.65876 0.897887
4219.95 0.680627 0.694482 7.64326 0.898145
4220.3 0.682875 0.694467 7.63082 0.8984
4220.64 0.684612 0.693079 7.61892 0.898652
4220.99 0.684347 0.690281 7.61628 0.8989
4221.33 0.681402 0.686068 7.64158 0.899144
4221.68 0.676674 0.680435 7.667 0.899384
4222.02 0.67117 0.67338 7.72275 0.89962
4222.37 0.664964 0.664927 7.79611 0.899852
4222.71 0.657487 0.655174 7.87203 0.90008
4223.06 0.648315 0.644314 7.98789 0.900304
4223.4 0.637585 0.632644 8.10632 0.900523
4223.75 0.625574 0.620538 8.23434 0.900739
4224.1 0.612919 0.608386 8.37469 0.900949
4224.44 0.600691 0.596545 8.51867 0.901155
4224.79 0.589885 0.585323 8.64852 0.901357
4225.13 0.580809 0.574991 8.77761 0.901554
4225.48 0.573486 0.565802 8.89569 0.901746
4225.82 0.567798 0.558011 8.96757 0.901933
4226.17 0.563335 0.551878 9.04034 0.902115
4226.52 0.559684 0.54762 9.08652 0.902292
4226.86 0.55684 0.545359 9.11631 0.902465
4227.21 0.555101 0.5451 9.14553 0.902633
4227.55 0.554721 0.546739 9.13961 0.902796
4227.9 0.555766 0.550094 9.13369 0.902955
4228.24 0.558257 0.554975 9.11039 0.903109
4228.59 0.562141 0.561205 9.06315 0.903258
4228.94 0.567276 0.568639 9.01627 0.903403
4229.28 0.573522 0.577133 8.9364 0.903544
4229.63 0.580803 0.586496 8.85021 0.90368
4229.97 0.589069 0.596436 8.75825 0.903811
4230.32 0.598229 0.606593 8.64272 0.903939
4230.67 0.608107 0.616566 8.52946 0.904062
4231.01 0.618495 0.625964 8.40947 0.904181
4231.36 0.628896 0.63447 8.28653 0.904296
4231.71 0.638601 0.641891 8.16663 0.904406
4232.05 0.646896 0.648151 8.07194 0.904513
4232.4 0.653081 0.653248 7.97888 0.904615
4232.74 0.656487 0.657225 7.92167 0.904714
4233.09 0.657549 0.660138 7.91288 0.904808
4233.44 0.658074 0.662053 7.9041 0.904899
4233.78 0.65972 0.663057 7.86804 0.904986
4234.13 0.662513 0.663284 7.82622 0.905069
4234.48 0.665783 0.662924 7.7881 0.905148
4234.82 0.668816 0.662205 7.76214 0.905224
4235.17 0.670817 0.661349 7.73631 0.905296
4235.52 0.671037 0.660535 7.73462 0.905364
4235.86 0.669527 0.659878 7.74754 0.905429
4236.21 0.666919 0.65944 7.76095 0.90549
4236.56 0.663902 0.659253 7.79163 0.905548
4236.9 0.661335 0.659366 7.8225 0.905602
4237.25 0.660099 0.659848 7.84145 0.905653
4237.6 0.660534 0.660793 7.84435 0.9057
4237.94 0.662331 0.662286 7.84726 0.905745
4238.29 0.665136 0.664383 7.83445 0.905786
4238.64 0.668568 0.667088 7.81855 0.905823
4238.98 0.672233 0.670368 7.80224 0.905858
4239.33 0.675799 0.674153 7.78455 0.90589
4239.68 0.679047 0.678358 7.76691 0.905918
4240.02 0.681825 0.68291 7.73739 0.905944
4240.37 0.684612 0.687752 7.70147 0.905966
4240.72 0.688321 0.692838 7.66476 0.905986
4241.06 0.693582 0.698138 7.60873 0.906003
4241.41 0.70001 0.703629 7.5533 0.906017
4241.76 0.706987 0.70924 7.50163 0.906028
4242.11 0.71348 0.714836 7.45421 0.906037
4242.45 0.717987 0.720218 7.40724 0.906042
4242.8 0.719452 0.725148 7.40834 0.906046
4243.15 0.719677 0.729375 7.41709 0.906046
4243.49 0.721524 0.732714 7.40874 0.906044
4243.84 0.726098 0.735081 7.35444 0.90604
4244.19 0.73127 0.736491 7.30073 0.906033
4244.54 0.734721 0.737002 7.27614 0.906023
4244.88 0.735915 0.736689 7.26522 0.906012
4245.23 0.735431 0.73559 7.25699 0.905998
4245.58 0.733751 0.733691 7.27704 0.905982
4245.92 0.731 0.730958 7.29717 0.905963
4246.27 0.727239 0.727403 7.32983 0.905942
4246.62 0.722599 0.72309 7.37549 0.90592
4246.97 0.717283 0.718134 7.42158 0.905895
4247.31 0.711527 0.712681 7.47653 0.905868
4247.66 0.705739 0.706875 7.53298 0.905839
4248.01 0.700376 0.700805 7.58621 0.905808
4248.36 0.695624 0.694544 7.6315 0.905776
4248.7 0.691215 0.688191 7.6772 0.905741
4249.05 0.686859 0.681889 7.71878 0.905705
4249.4 0.682415 0.675809 7.75897 0.905667
4249.75 0.677827 0.670131 7.80031 0.905627
4250.1 0.673126 0.665003 7.84725 0.905586
4250.44 0.668581 0.660499 7.89462 0.905543
4250.79 0.664498 0.656608 7.93827 0.905498
4251.14 0.661092 0.653297 7.97886 0.905452
4251.49 0.658505 0.650551 8.01976 0.905405
4251.83 0.656786 0.648389 8.05512 0.905356
4252.18 0.655585 0.646861 8.09048 0.905305
4252.53 0.654443 0.646037 8.12167 0.905254
4252.88 0.653112 0.645966 8.14566 0.905201
4253.23 0.651635 0.646629 8.16976 0.905147
4253.57 0.65015 0.647943 8.17504 0.905091
4253.92 0.649369 0.64978 8.17523 0.905035
4254.27 0.650264 0.651967 8.16788 0.904977
4254.62 0.653233 0.654318 8.13085 0.904918
4254.97 0.65738 0.65666 8.09407 0.904859
4255.31 0.661663 0.658832 8.06333 0.904798
4255.66 0.665364 0.660681 8.03634 0.904737
4256.01 0.668005 0.662105 8.0106 0.904674
4256.36 0.669309 0.663077 8.01868 0.904611
4256.71 0.669703 0.663632 8.02677 0.904547
4257.06 0.669765 0.663875 8.03317 0.904482
4257.4 0.669816 0.663959 8.03748 0.904417
4257.75 0.669879 0.664038 8.04179 0.904351
4258.1 0.669937 0.664207 8.04295 0.904284
4258.45 0.669844 0.664502 8.04361 0.904217
4258.8 0.669407 0.66493 8.04558 0.90415
4259.15 0.668636 0.665486 8.05091 0.904082
4259.49 0.667907 0.666175 8.05625 0.904013
4259.84 0.667619 0.667049 8.05444 0.903944
4260.19 0.668039 0.668191 8.04952 0.903875
4260.54 0.669353 0.6697 8.04122 0.903806
4260.89 0.671626 0.671678 8.00704 0.903737
4261.24 0.674589 0.674217 7.97308 0.903667
4261.59 0.677917 0.677384 7.94015 0.903597
4261.93 0.681427 0.681224 7.90814 0.903527
4262.28 0.68506 0.685739 7.87631 0.903457
4262.63 0.688759 0.69086 7.83808 0.903387
4262.98 0.692459 0.696446 7.79979 0.903317
4263.33 0.696092 0.702309 7.76083 0.903248
4263.68 0.699705 0.70821 7.72055 0.903178
4264.03 0.703505 0.713868 7.68058 0.903109
4264.38 0.70769 0.719017 7.63933 0.90304
4264.73 0.712297 0.723431 7.59799 0.902971
4265.07 0.717283 0.726904 7.55581 0.902903
4265.42 0.722204 0.729266 7.50969 0.902835
4265.77 0.725751 0.730408 7.46398 0.902767
4266.12 0.726597 0.730255 7.46354 0.9027
4266.47 0.724675 0.728734 7.48916 0.902634
4266.82 0.720801 0.725799 7.51695 0.902568
4267.17 0.715655 0.721445 7.57978 0.902502
4267.52 0.709384 0.715701 7.6434 0.902438
4267.87 0.702034 0.708663 7.7156 0.902374
4268.22 0.693835 0.7005 7.79743 0.902311
4268.57 0.685221 0.691424 7.88059 0.902248
4268.91 0.676594 0.681653 7.96909 0.902187
4269.26 0.668147 0.671404 8.05954 0.902126
4269.61 0.660001 0.660876 8.15131 0.902067
4269.96 0.65215 0.65028 8.24418 0.902008
4270.31 0.644388 0.639857 8.33865 0.901951
4270.66 0.636527 0.629866 8.43335 0.901894
4271.01 0.628669 0.62056 8.52921 0.901839
4271.36 0.621068 0.612165 8.62245 0.901785
4271.71 0.614115 0.604837 8.69647 0.901732
4272.06 0.608519 0.598651 8.77144 0.901679
4272.41 0.604962 0.593665 8.82034 0.901628
4272.76 0.602985 0.589965 8.85131 0.901578
4273.11 0.601244 0.587685 8.88213 0.901529
4273.46 0.598889 0.58699 8.89873 0.901481
4273.81 0.597006 0.588017 8.91539 0.901434
4274.16 0.597107 0.590811 8.90358 0.901388
4274.51 0.599863 0.595255 8.85704 0.901343
4274.86 0.604987 0.601072 8.81086 0.901299
4275.21 0.611985 0.607888 8.73308 0.901256
4275.56 0.61949 0.615349 8.65184 0.901214
4275.91 0.625828 0.623179 8.58198 0.901173
4276.26 0.630511 0.63119 8.53638 0.901133
4276.61 0.635048 0.639263 8.49115 0.901094
4276.96 0.640977 0.647286 8.40667 0.901055
4277.31 0.648356 0.655079 8.30909 0.901018
4277.66 0.656434 0.662409 8.21584 0.900981
4278.01 0.664459 0.66905 8.138 0.900945
4278.36 0.671692 0.674843 8.06126 0.90091
4278.71 0.677438 0.679748 8.01296 0.900876
4279.06 0.681683 0.683845 7.98428 0.900843
4279.41 0.684948 0.687253 7.95592 0.900811
4279.76 0.687694 0.690042 7.9386 0.900779
4280.11 0.690091 0.692197 7.92134 0.900748
4280.46 0.692225 0.693632 7.90549 0.900718
4280.81 0.693915 0.69425 7.89137 0.900689
4281.16 0.694668 0.694025 7.87729 0.900661
4281.51 0.694058 0.693068 7.88285 0.900633
4281.86 0.692169 0.691589 7.89119 0.900606
4282.21 0.689265 0.689823 7.91048 0.90058
4282.56 0.685723 0.687949 7.95469 0.900555
4282.91 0.682104 0.686049 7.99927 0.90053
4283.26 0.678935 0.684102 8.04252 0.900506
4283.61 0.67628 0.682019 8.08552 0.900483
4283.96 0.673959 0.679713 8.12677 0.90046
4284.31 0.671782 0.677148 8.15807 0.900438
4284.66 0.669545 0.674328 8.18955 0.900417
4285.01 0.667055 0.671286 8.21478 0.900396
4285.36 0.664335 0.668058 8.23588 0.900376
4285.71 0.661573 0.664646 8.2573 0.900357
4286.06 0.658924 0.660999 8.285 0.900338
4286.41 0.656402 0.657055 8.31285 0.90032
4286.76 0.653983 0.652773 8.35185 0.900303
4287.12 0.651363 0.648169 8.40366 0.900286
4287.47 0.647939 0.64335 8.45595 0.900269
4287.82 0.643261 0.638541 8.50837 0.900254
4288.17 0.637797 0.634 8.56124 0.900238
4288.52 0.632318 0.629958 8.61476 0.900224
4288.87 0.62744 0.626564 8.66908 0.90021
4289.22 0.623552 0.623852 8.72392 0.900196
4289.57 0.620954 0.621738 8.75498 0.900183
4289.92 0.61941 0.620122 8.77907 0.90017
4290.27 0.618427 0.618947 8.80231 0.900158
4290.62 0.617633 0.618221 8.822 0.900146
4290.98 0.616929 0.617987 8.84176 0.900135
4291.33 0.616269 0.618282 8.85542 0.900124
4291.68 0.61585 0.619069 8.86572 0.900114
4292.03 0.616035 0.620219 8.87326 0.900104
4292.38 0.617068 0.621563 8.85012 0.900094
4292.73 0.618812 0.622953 8.82706 0.900085
4293.08 0.621051 0.624309 8.79133 0.900077
4293.43 0.62345 0.6256 8.74413 0.900068
4293.79 0.625566 0.62677 8.6973 0.900061
4294.14 0.626958 0.627672 8.69344 0.900053
4294.49 0.627225 0.628051 8.69147 0.900046
4294.84 0.625986 0.627584 8.70581 0.900039
4295.19 0.623339 0.625973 8.74518 0.900032
4295.54 0.620004 0.623073 8.78483 0.900026
4295.89 0.61663 0.618926 8.83429 0.90002
4296.25 0.613105 0.613721 8.88608 0.900015
4296.6 0.609008 0.607698 8.94668 0.900009
4296.95 0.603877 0.60107 9.03027 0.900004
4297.3 0.597177 0.593972 9.11504 0.899999
4297.65 0.588486 0.586468 9.24793 0.899995
4298.0 0.578593 0.578621 9.40299 0.899991
4298.35 0.568971 0.570555 9.5592 0.899987
4298.71 0.560578 0.562473 9.70377 0.899983
4299.06 0.553046 0.554598 9.85166 0.899979
4299.41 0.545835 0.547124 9.96524 0.899976
4299.76 0.538878 0.540165 10.055 0.899972
4300.11 0.532482 0.533751 10.1464 0.899969
4300.47 0.52683 0.527852 10.2516 0.899966
4300.82 0.521634 0.522466 10.3585 0.899964
4301.17 0.516516 0.517638 10.4642 0.899961
4301.52 0.511407 0.513456 10.5682 0.899958
4301.87 0.50657 0.510002 10.6738 0.899956
4302.22 0.502299 0.507313 10.7539 0.899954
4302.58 0.498978 0.505303 10.8325 0.899952
4302.93 0.497006 0.503783 10.897 0.89995
4303.28 0.496302 0.502523 10.9358 0.899948
4303.63 0.496103 0.501313 10.9748 0.899946
4303.99 0.495675 0.500015 10.9866 0.899944
4304.34 0.494866 0.498594 10.9919 0.899942
4304.69 0.493782 0.497097 10.9967 0.89994
4305.04 0.492569 0.495593 10.9997 0.899938
4305.39 0.491458 0.494144 11.0028 0.899937
4305.75 0.490668 0.492773 11.0074 0.899935
4306.1 0.490186 0.491484 11.0127 0.899933
4306.45 0.489867 0.490294 11.0162 0.899931
4306.8 0.489645 0.489246 11.0092 0.899929
4307.16 0.489666 0.488424 11.0021 0.899927
4307.51 0.490114 0.487966 10.9802 0.899925
4307.86 0.491256 0.488047 10.9479 0.899923
4308.21 0.493416 0.488823 10.9147 0.899921
4308.57 0.496797 0.490429 10.8525 0.899919
4308.92 0.501152 0.492979 10.7908 0.899917
4309.27 0.506126 0.496545 10.7203 0.899914
4309.62 0.511213 0.501155 10.6406 0.899912
4309.98 0.515751 0.506842 10.5618 0.899909
4310.33 0.519439 0.513665 10.4652 0.899906
4310.68 0.523787 0.521695 10.3685 0.899903
4311.03 0.530839 0.531006 10.2385 0.8999
4311.39 0.541521 0.54165 10.0558 0.899897
4311.74 0.55523 0.553609 9.87789 0.899893
4312.09 0.571196 0.56676 9.66309 0.899889
4312.44 0.588268 0.580892 9.44688 0.899885
4312.8 0.605138 0.595774 9.23732 0.899881
4313.15 0.620998 0.611219 9.03336 0.899877
4313.5 0.63593 0.627094 8.83607 0.899872
4313.86 0.650141 0.643313 8.66324 0.899867
4314.21 0.664114 0.659792 8.50203 0.899862
4314.56 0.678484 0.676391 8.34137 0.899857
4314.92 0.693538 0.69286 8.16766 0.899851
4315.27 0.708736 0.708887 7.99931 0.899845
4315.62 0.723439 0.72418 7.84846 0.899838
4315.97 0.737359 0.73853 7.70896 0.899832
4316.33 0.75045 0.751827 7.5754 0.899825
4316.68 0.762664 0.764056 7.4711 0.899818
4317.03 0.773912 0.77523 7.36893 0.89981
4317.39 0.784089 0.785305 7.28682 0.899802
4317.74 0.792903 0.794118 7.22178 0.899794
4318.09 0.799891 0.801421 7.1576 0.899786
4318.45 0.80462 0.80694 7.13203 0.899777
4318.8 0.806825 0.810447 7.10725 0.899768
4319.15 0.806299 0.811829 7.101 0.899759
4319.51 0.803458 0.811124 7.11867 0.89975
4319.86 0.799447 0.808473 7.1364 0.89974
4320.21 0.795264 0.804041 7.1617 0.899731
4320.57 0.790856 0.797966 7.18807 0.899721
4320.92 0.785798 0.790352 7.22791 0.899711
4321.27 0.779489 0.781305 7.29389 0.899701
4321.63 0.77106 0.771 7.36078 0.899691
4321.98 0.759837 0.759735 7.45936 0.899681
4322.34 0.746764 0.747926 7.56794 0.89967
4322.69 0.733515 0.736044 7.6738 0.89966
4323.04 0.721551 0.724524 7.76643 0.899649
4323.4 0.711912 0.713716 7.86075 0.899639
4323.75 0.705422 0.703874 7.9155 0.899628
4324.1 0.701227 0.695193 7.95371 0.899617
4324.46 0.697505 0.687852 7.9958 0.899606
4324.81 0.693113 0.682042 8.05678 0.899596
4325.17 0.688626 0.677943 8.11846 0.899585
4325.52 0.684862 0.675691 8.15911 0.899574
4325.87 0.682467 0.675335 8.18671 0.899563
4326.23 0.681957 0.676831 8.21009 0.899553
4326.58 0.683686 0.680062 8.18178 0.899542
4326.94 0.687513 0.684877 8.15361 0.899531
4327.29 0.693191 0.691129 8.10688 0.899521
4327.64 0.700348 0.69868 8.0445 0.899511
4328.0 0.7085 0.707387 7.98284 0.8995
4328.35 0.717203 0.717085 7.90423 0.89949
4328.71 0.726196 0.727571 7.82665 0.89948
4329.06 0.735268 0.738588 7.74682 0.89947
4329.41 0.744343 0.749814 7.66416 0.89946
4329.77 0.753491 0.76092 7.58281 0.89945
4330.12 0.76279 0.771586 7.49761 0.899441
4330.48 0.77231 0.781526 7.41334 0.899432
4330.83 0.782114 0.79052 7.32901 0.899422
4331.19 0.792085 0.798441 7.24367 0.899414
4331.54 0.80185 0.805216 7.15981 0.899405
4331.89 0.810995 0.810805 7.08983 0.899396
4332.25 0.818953 0.815181 7.02334 0.899388
4332.6 0.825095 0.818314 6.97418 0.89938
4332.96 0.82882 0.820165 6.96509 0.899373
4333.31 0.829575 0.820704 6.95601 0.899365
4333.67 0.826895 0.819928 6.99227 0.899358
4334.02 0.821015 0.817857 7.04386 0.899351
4334.38 0.812528 0.814506 7.10114 0.899345
4334.73 0.802526 0.809888 7.17807 0.899339
4335.09 0.79316 0.804016 7.25626 0.899333
4335.44 0.786436 0.796908 7.31219 0.899327
4335.8 0.781196 0.788613 7.35747 0.899322
4336.15 0.774304 0.779277 7.41035 0.899318
4336.5 0.763997 0.769138 7.50843 0.899313
4336.86 0.752222 0.758481 7.60848 0.899309
4337.21 0.741425 0.747598 7.69453 0.899306
4337.57 0.732439 0.73677 7.7714 0.899303
4337.92 0.724867 0.726226 7.8487 0.8993
4338.28 0.71821 0.71615 7.91692 0.899298
4338.63 0.711738 0.706734 7.98603 0.899296
4338.99 0.704724 0.698207 8.05826 0.899295
4339.34 0.697425 0.690822 8.13343 0.899294
4339.7 0.691005 0.684824 8.20967 0.899294
4340.05 0.686452 0.680398 8.26261 0.899294
4340.41 0.683902 0.677628 8.316 0.899295
4340.76 0.683272 0.676503 8.34154 0.899297
4341.12 0.684353 0.676928 8.3343 0.899299
4341.47 0.686803 0.678784 8.32706 0.899301
4341.83 0.690276 0.681978 8.29398 0.899304
4342.19 0.694459 0.686454 8.25913 0.899308
4342.54 0.699051 0.692164 8.21878 0.899312
4342.9 0.703902 0.699027 8.17003 0.899317
4343.25 0.709054 0.706886 8.12172 0.899322
4343.61 0.714604 0.715497 8.05986 0.899329
4343.96 0.720896 0.724549 7.9965 0.899335
4344.32 0.728358 0.733727 7.92677 0.899343
4344.67 0.737333 0.742774 7.8437 0.899351
4345.03 0.748014 0.751528 7.76192 0.89936
4345.38 0.760308 0.759908 7.6676 0.899369
4345.74 0.77208 0.767862 7.57156 0.89938
4346.09 0.78029 0.775313 7.49563 0.899391
4346.45 0.783978 0.782117 7.47081 0.899402
4346.81 0.786057 0.788063 7.4461 0.899415
4347.16 0.789527 0.792916 7.4105 0.899428
4347.52 0.794363 0.796483 7.37125 0.899442
4347.87 0.798921 0.798661 7.33959 0.899457
4348.23 0.801866 0.799463 7.33625 0.899472
4348.58 0.802576 0.799002 7.3329 0.899489
4348.94 0.800636 0.797458 7.35476 0.899506
4349.3 0.796884 0.795031 7.38891 0.899524
4349.65 0.792943 0.791913 7.42191 0.899543
4350.01 0.78978 0.788278 7.44703 0.899563
4350.36 0.786622 0.784283 7.47228 0.899583
4350.72 0.782492 0.780081 7.51234 0.899605
4351.08 0.777533 0.775841 7.5619 0.899627
4351.43 0.772701 0.771729 7.60976 0.899651
4351.79 0.768752 0.767881 7.63572 0.899675
4352.14 0.765759 0.764413 7.66181 0.8997
4352.5 0.76366 0.76143 7.67816 0.899726
4352.86 0.76231 0.75902 7.68686 0.899754
4353.21 0.761498 0.757271 7.69536 0.899782
4353.57 0.761039 0.756301 7.69778 0.899811
4353.92 0.760864 0.756238 7.7002 0.899841
4354.28 0.760935 0.757161 7.70163 0.899872
4354.64 0.761341 0.759089 7.7021 0.899904
4354.99 0.762295 0.761965 7.70257 0.899937
4355.35 0.764001 0.765628 7.68863 0.899971
4355.71 0.766615 0.769838 7.67447 0.900007
4356.06 0.770271 0.774342 7.64857 0.900043
4356.42 0.774918 0.77892 7.6089 0.90008
4356.78 0.780296 0.783401 7.56953 0.900119
4357.13 0.786068 0.787716 7.53669 0.900158
4357.49 0.79158 0.79189 7.50451 0.900199
4357.85 0.79609 0.795979 7.47601 0.900241
4358.2 0.79935 0.80004 7.45268 0.900284
4358.56 0.801734 0.804119 7.42946 0.900328
4358.91 0.803689 0.808213 7.40925 0.900374
4359.27 0.805836 0.812265 7.3895 0.90042
4359.63 0.808847 0.816227 7.36832 0.900468
4359.98 0.812827 0.820068 7.34455 0.900517
4360.34 0.817057 0.823772 7.32088 0.900567
4360.7 0.8209 0.827355 7.29503 0.900618
4361.06 0.824673 0.830869 7.26887 0.900671
4361.41 0.829069 0.834362 7.23974 0.900725
4361.77 0.834117 0.837856 7.20406 0.90078
4362.13 0.838758 0.841353 7.16864 0.900837
4362.48 0.84198 0.844801 7.1485 0.900894
4362.84 0.843896 0.848079 7.13238 0.900953
4363.2 0.84513 0.851027 7.11781 0.901013
4363.55 0.846254 0.853474 7.10731 0.901075
4363.91 0.847738 0.855259 7.09683 0.901137
4364.27 0.849945 0.85628 7.08512 0.901201
4364.62 0.852428 0.856525 7.07303 0.901266
4364.98 0.854321 0.856039 7.06391 0.901332
4365.34 0.854905 0.854921 7.06466 0.9014
4365.7 0.853764 0.853313 7.06541 0.901468
4366.05 0.850619 0.851351 7.09107 0.901538
4366.41 0.846191 0.849141 7.12718 0.901609
4366.77 0.841775 0.84677 7.16144 0.901681
4367.13 0.838225 0.844252 7.1869 0.901754
4367.48 0.83537 0.841537 7.2125 0.901829
4367.84 0.832883 0.838555 7.24123 0.901904
4368.2 0.830339 0.835247 7.27162 0.901981
4368.55 0.827243 0.831579 7.30379 0.902059
4368.91 0.8233 0.827598 7.34506 0.902138
4369.27 0.818721 0.823419 7.38669 0.902218
4369.63 0.813816 0.81917 7.43186 0.902299
4369.98 0.809167 0.814954 7.47931 0.902381
4370.34 0.805542 0.810826 7.52382 0.902465
4370.7 0.803241 0.806766 7.5432 0.902549
4371.06 0.801239 0.802706 7.56265 0.902635
4371.42 0.798326 0.798578 7.59715 0.902721
4371.77 0.794116 0.794345 7.64191 0.902809
4372.13 0.788846 0.790019 7.68793 0.902897
4372.49 0.78297 0.785675 7.74358 0.902987
4372.85 0.777568 0.781432 7.79984 0.903078
4373.2 0.773781 0.777424 7.83856 0.90317
4373.56 0.771813 0.773793 7.86376 0.903262
4373.92 0.77108 0.770675 7.88779 0.903356
4374.28 0.77079 0.768167 7.88919 0.903451
4374.64 0.769516 0.766318 7.89058 0.903547
4374.99 0.765821 0.76512 7.92764 0.903644
4375.35 0.760656 0.764489 7.99579 0.903742
4375.71 0.757128 0.764289 8.06247 0.90384
4376.07 0.757468 0.764362 8.03864 0.90394
4376.43 0.76037 0.764569 8.01492 0.904041
4376.78 0.76374 0.764785 7.99649 0.904142
4377.14 0.766174 0.764919 7.98306 0.904245
4377.5 0.766935 0.76488 7.96966 0.904349
4377.86 0.765587 0.764548 7.98239 0.904453
4378.22 0.762782 0.763751 7.99519 0.904559
4378.57 0.759437 0.762288 8.01576 0.904665
4378.93 0.756284 0.759942 8.04465 0.904772
4379.29 0.75386 0.756519 8.07369 0.90488
4379.65 0.752351 0.751885 8.10112 0.904989
4380.01 0.750455 0.745982 8.12864 0.905099
4380.37 0.746506 0.738827 8.17247 0.90521
4380.72 0.73985 0.730552 8.23567 0.905322
4381.08 0.730949 0.721393 8.29961 0.905434
4381.44 0.7204 0.711681 8.40511 0.905548
4381.8 0.709156 0.701818 8.51477 0.905662
4382.16 0.698259 0.692227 8.62412 0.905777
4382.52 0.688486 0.683267 8.73241 0.905893
4382.88 0.680296 0.675202 8.84276 0.90601
4383.23 0.67403 0.668204 8.92391 0.906128
4383.59 0.669525 0.66236 9.00385 0.906246
4383.95 0.666465 0.657712 9.06416 0.906365
4384.31 0.664526 0.654306 9.09649 0.906485
4384.67 0.663369 0.652194 9.12899 0.906606
4385.03 0.662848 0.65143 9.11748 0.906728
4385.39 0.663803 0.652055 9.10176 0.90685
4385.74 0.667357 0.654094 9.06546 0.906973
4386.1 0.673082 0.657536 8.99923 0.907097
4386.46 0.67855 0.662309 8.93372 0.907222
4386.82 0.681745 0.668265 8.90484 0.907347
4387.18 0.683614 0.67518 8.88027 0.907473
4387.54 0.686098 0.682756 8.84295 0.9076
4387.9 0.690438 0.690665 8.78582 0.907728
4388.26 0.696931 0.6986 8.72923 0.907856
4388.62 0.705577 0.706318 8.64256 0.907985
4388.98 0.715037 0.713657 8.55313 0.908115
4389.33 0.723517 0.720534 8.47149 0.908246
4389.69 0.730232 0.726914 8.40156 0.908377
4390.05 0.735797 0.732786 8.33249 0.908509
4390.41 0.740861 0.738163 8.27854 0.908641
4390.77 0.745668 0.74308 8.22725 0.908774
4391.13 0.750311 0.747604 8.18394 0.908908
4391.49 0.754761 0.751846 8.15403 0.909043
4391.85 0.758818 0.755939 8.12429 0.909178
4392.21 0.762305 0.759984 8.09898 0.909314
4392.57 0.76526 0.764037 8.07449 0.90945
4392.93 0.767809 0.768106 8.04923 0.909587
4393.29 0.770146 0.772167 8.0225 0.909725
4393.65 0.772577 0.776199 7.9959 0.909863
4394.01 0.775386 0.78023 7.96565 0.910002
4394.37 0.778672 0.784317 7.93491 0.910141
4394.72 0.782458 0.788501 7.90542 0.910281
4395.08 0.786701 0.792762 7.87808 0.910422
4395.44 0.791258 0.796986 7.85089 0.910563
4395.8 0.795944 0.800981 7.83154 0.910705
4396.16 0.800372 0.804546 7.81368 0.910847
4396.52 0.804079 0.80753 7.80018 0.91099
4396.88 0.806748 0.809887 7.79498 0.911134
4397.24 0.808283 0.811679 7.78978 0.911278
4397.6 0.808656 0.81301 7.78895 0.911422
4397.96 0.808167 0.813957 7.78897 0.911567
4398.32 0.807242 0.814531 7.78748 0.911713
4398.68 0.806289 0.814663 7.78306 0.911859
4399.04 0.805689 0.814228 7.77865 0.912005
4399.4 0.80575 0.813092 7.76217 0.912152
4399.76 0.806316 0.811135 7.74341 0.9123
4400.12 0.807038 0.808267 7.73535 0.912448
4400.48 0.807042 0.804446 7.74813 0.912596
4400.84 0.804647 0.799668 7.76094 0.912745
4401.2 0.798481 0.793982 7.82346 0.912894
4401.56 0.789624 0.787527 7.89648 0.913044
4401.92 0.780136 0.780521 7.97139 0.913194
4402.28 0.77143 0.773234 8.04906 0.913345
4402.64 0.763938 0.765969 8.12787 0.913496
4403.0 0.757875 0.759017 8.19669 0.913647
4403.36 0.752623 0.752607 8.26424 0.913799
4403.72 0.747244 0.746884 8.33173 0.913952
4404.08 0.741759 0.741912 8.39828 0.914104
4404.44 0.737647 0.737698 8.46565 0.914257
4404.8 0.736202 0.734238 8.49094 0.914411
4405.16 0.736765 0.731549 8.50844 0.914565
4405.53 0.73792 0.729706 8.51559 0.914719
4405.89 0.738923 0.728845 8.50323 0.914874
4406.25 0.740045 0.729147 8.4909 0.915028
4406.61 0.741639 0.730789 8.46431 0.915184
4406.97 0.744041 0.733898 8.43534 0.915339
4407.33 0.747579 0.738523 8.40066 0.915495
4407.69 0.752375 0.744601 8.3556 0.915652
4408.05 0.758254 0.751954 8.31089 0.915808
4408.41 0.764981 0.76031 8.25299 0.915965
4408.77 0.772111 0.769342 8.19348 0.916122
4409.13 0.779126 0.778699 8.13313 0.916279
4409.49 0.785914 0.788033 8.07088 0.916437
4409.85 0.792947 0.797039 8.00933 0.916595
4410.21 0.800617 0.805471 7.94061 0.916753
4410.57 0.808574 0.813125 7.8716 0.916911
4410.94 0.816194 0.819855 7.80986 0.917069
4411.3 0.822932 0.825576 7.75939 0.917228
4411.66 0.828348 0.830238 7.70941 0.917386
4412.02 0.832089 0.833817 7.68325 0.917545
4412.38 0.834257 0.836332 7.66036 0.917704
4412.74 0.835122 0.837848 7.64657 0.917863
4413.1 0.835106 0.838488 7.64699 0.918022
4413.46 0.834845 0.838436 7.64741 0.91818
4413.82 0.834897 0.837901 7.64965 0.918339
4414.18 0.835336 0.837103 7.65211 0.918498
4414.55 0.836067 0.836217 7.65083 0.918657
4414.91 0.836808 0.835358 7.64402 0.918816
4415.27 0.837041 0.834606 7.63722 0.918975
4415.63 0.836357 0.83407 7.64311 0.919133
4415.99 0.834994 0.833869 7.65023 0.919292
4416.35 0.833409 0.834156 7.65598 0.91945
4416.71 0.832253 0.835079 7.65983 0.919608
4417.07 0.832421 0.836708 7.66369 0.919766
4417.44 0.834676 0.838986 7.6471 0.919924
4417.8 0.839063 0.84178 7.62904 0.920082
4418.16 0.845369 0.844892 7.59562 0.920239
4418.52 0.852227 0.848121 7.54298 0.920397
4418.88 0.856914 0.851331 7.49087 0.920553
4419.24 0.85755 0.854445 7.49418 0.92071
4419.61 0.856512 0.857383 7.50039 0.920866
4419.97 0.857325 0.860077 7.49014 0.921022
4420.33 0.86087 0.862455 7.46079 0.921178
4420.69 0.865104 0.864403 7.43161 0.921333
4421.05 0.868128 0.86582 7.42649 0.921488
4421.41 0.869335 0.866666 7.42204 0.921643
4421.78 0.868498 0.86692 7.42921 0.921797
4422.14 0.866146 0.866576 7.44878 0.921951
4422.5 0.86359 0.865684 7.46844 0.922104
4422.86 0.861812 0.864325 7.48425 0.922257
4423.22 0.860304 0.862603 7.5001 0.922409
4423.58 0.858221 0.860687 7.5188 0.922561
4423.95 0.855651 0.858777 7.54026 0.922712
4424.31 0.853586 0.857041 7.56137 0.922862
4424.67 0.852758 0.855588 7.56407 0.923013
4425.03 0.85279 0.854462 7.56678 0.923162
4425.39 0.853059 0.853641 7.56903 0.923311
4425.76 0.853217 0.853089 7.57089 0.923459
4426.12 0.853159 0.852799 7.57281 0.923607
4426.48 0.85287 0.852789 7.5757 0.923754
4426.84 0.852603 0.853064 7.57859 0.9239
4427.21 0.852657 0.853574 7.58065 0.924045
4427.57 0.853183 0.854198 7.58209 0.92419
4427.93 0.854207 0.85477 7.58324 0.924334
4428.29 0.855645 0.855144 7.58114 0.924478
4428.65 0.857088 0.855286 7.57904 0.92462
4429.02 0.858081 0.855258 7.58073 0.924762
4429.38 0.85848 0.855152 7.58496 0.924903
4429.74 0.858376 0.855021 7.58986 0.925043
4430.1 0.857866 0.854819 7.59988 0.925182
4430.47 0.85703 0.854358 7.60991 0.92532
4430.83 0.855936 0.853415 7.62994 0.925458
4431.19 0.854538 0.851849 7.6559 0.925594
4431.55 0.852707 0.849673 7.68352 0.92573
4431.92 0.850314 0.847044 7.72005 0.925865
4432.28 0.847241 0.844231 7.75685 0.925998
4432.64 0.843422 0.84152 7.7686 0.926131
4433.0 0.839393 0.839138 7.76776 0.926263
4433.37 0.836075 0.837229 7.77187 0.926393
4433.73 0.833985 0.835893 7.79769 0.926523
4434.09 0.832693 0.835213 7.82364 0.926651
4434.46 0.831686 0.83525 7.8318 0.926779
4434.82 0.831018 0.836036 7.83246 0.926905
4435.18 0.831074 0.837545 7.82877 0.92703
4435.54 0.832157 0.839678 7.81007 0.927154
4435.91 0.834393 0.842302 7.79143 0.927277
4436.27 0.837834 0.84529 7.76684 0.927399
4436.63 0.842083 0.848561 7.74032 0.927519
4437.0 0.846503 0.852095 7.71487 0.927638
4437.36 0.850528 0.855905 7.6921 0.927756
4437.72 0.85372 0.859953 7.66943 0.927873
4438.09 0.8558 0.864134 7.65339 0.927989
4438.45 0.857596 0.868282 7.63918 0.928103
4438.81 0.860442 0.872179 7.62164 0.928216
4439.17 0.864824 0.875616 7.5966 0.928327
4439.54 0.869818 0.878472 7.57168 0.928437
4439.9 0.874428 0.880721 7.55064 0.928546
4440.26 0.878087 0.882406 7.53045 0.928653
4440.63 0.880414 0.883625 7.51345 0.928759
4440.99 0.881506 0.884504 7.50218 0.928864
4441.35 0.88216 0.885155 7.49094 0.928967
4441.72 0.883089 0.885667 7.4803 0.929069
4442.08 0.884174 0.886113 7.46975 0.929169
4442.44 0.885003 0.886564 7.46375 0.929267
4442.81 0.885464 0.887106 7.46458 0.929365
4443.17 0.885839 0.887836 7.4654 0.92946
4443.54 0.886427 0.888855 7.46048 0.929554
4443.9 0.887484 0.890263 7.45509 0.929646
4444.26 0.889244 0.892128 7.44525 0.929737
4444.63 0.891748 0.894449 7.42995 0.929826
4444.99 0.894813 0.897178 7.41469 0.929914
4445.35 0.898229 0.90027 7.39335 0.93
4445.72 0.901723 0.903673 7.37193 0.930084
4446.08 0.905016 0.907325 7.35163 0.930166
4446.44 0.908145 0.911153 7.33245 0.930247
4446.81 0.911463 0.915024 7.3131 0.930326
4447.17 0.915228 0.918705 7.2845 0.930403
4447.54 0.919291 0.921906 7.25606 0.930479
4447.9 0.923397 0.924356 7.23453 0.930553
4448.26 0.927136 0.925877 7.21858 0.930625
4448.63 0.929961 0.926429 7.20345 0.930695
4448.99 0.931405 0.926102 7.1975 0.930763
4449.36 0.931274 0.92504 7.19155 0.930829
4449.72 0.929445 0.923345 7.19598 0.930893
4450.08 0.926087 0.921021 7.20719 0.930956
4450.45 0.921589 0.917969 7.22212 0.931017
4450.81 0.916381 0.914071 7.26129 0.931075
4451.18 0.911001 0.909267 7.30079 0.931132
4451.54 0.905932 0.903615 7.35159 0.931186
4451.91 0.900819 0.897281 7.40862 0.931239
4452.27 0.894764 0.890483 7.46376 0.93129
4452.63 0.887366 0.883421 7.50863 0.931338
4453.0 0.879395 0.876224 7.55391 0.931385
4453.36 0.87171 0.868948 7.60256 0.931429
4453.73 0.864477 0.861615 7.65285 0.931472
4454.09 0.857477 0.854269 7.70661 0.931512
4454.46 0.850459 0.846985 7.76996 0.93155
4454.82 0.843124 0.839877 7.83409 0.931586
4455.18 0.835331 0.833085 7.90631 0.93162
4455.55 0.828231 0.826726 7.98161 0.931651
4455.91 0.823562 0.820875 8.04119 0.931681
4456.28 0.821506 0.815565 8.06412 0.931709
4456.64 0.819687 0.810804 8.08715 0.931735
4457.01 0.815917 0.806597 8.12956 0.931758
4457.37 0.810774 0.802985 8.17591 0.93178
4457.74 0.805921 0.800043 8.21255 0.9318
4458.1 0.80249 0.797863 8.23255 0.931818
4458.47 0.800876 0.796514 8.25263 0.931834
4458.83 0.801254 0.79601 8.24927 0.931848
4459.2 0.802933 0.796282 8.24355 0.931861
4459.56 0.804948 0.797204 8.23597 0.931872
4459.93 0.806668 0.798657 8.22605 0.931881
4460.29 0.807857 0.800576 8.21615 0.931888
4460.66 0.80846 0.802954 8.22324 0.931894
4461.02 0.809106 0.805847 8.23078 0.931898
4461.39 0.81059 0.809311 8.22419 0.9319
4461.75 0.813265 0.813328 8.20401 0.931901
4462.12 0.81705 0.817788 8.18342 0.931901
4462.48 0.821728 0.822552 8.15222 0.931898
4462.85 0.826673 0.827476 8.1212 0.931894
4463.21 0.831188 0.83246 8.09172 0.931889
4463.58 0.834941 0.837478 8.0634 0.931883
4463.94 0.837895 0.842544 8.03609 0.931874
4464.31 0.840339 0.84764 8.01567 0.931865
4464.67 0.843461 0.852699 7.99533 0.931854
4465.04 0.848486 0.857628 7.94794 0.931842
4465.4 0.855095 0.86232 7.88655 0.931828
4465.77 0.861925 0.866676 7.83059 0.931814
4466.13 0.867895 0.870655 7.79575 0.931798
4466.5 0.872626 0.874254 7.76113 0.93178
4466.86 0.875885 0.877487 7.73848 0.931762
4467.23 0.877886 0.880388 7.7204 0.931742
4467.6 0.879094 0.883016 7.70428 0.931722
4467.96 0.879996 0.885454 7.69358 0.9317
4468.33 0.88112 0.887813 7.68291 0.931677
4468.69 0.882945 0.890218 7.67093 0.931653
4469.06 0.885542 0.892776 7.65864 0.931628
4469.42 0.888797 0.895573 7.64445 0.931602
4469.79 0.892687 0.898658 7.62652 0.931575
4470.15 0.89732 0.902033 7.60865 0.931547
4470.52 0.902773 0.90569 7.56605 0.931519
4470.89 0.908851 0.909622 7.52035 0.931489
4471.25 0.915266 0.913808 7.47551 0.931458
4471.62 0.921641 0.918223 7.43169 0.931427
4471.98 0.927493 0.922846 7.38824 0.931395
4472.35 0.932429 0.927641 7.35747 0.931362
4472.72 0.936485 0.932569 7.32745 0.931329
4473.08 0.939844 0.937593 7.3043 0.931294
4473.45 0.943158 0.942675 7.28802 0.931259
4473.81 0.947551 0.947757 7.27067 0.931224
4474.18 0.953683 0.952761 7.22484 0.931188
4474.55 0.960459 0.957559 7.17944 0.931151
4474.91 0.966442 0.961984 7.14302 0.931114
4475.28 0.97092 0.965839 7.11306 0.931076
4475.64 0.973778 0.968954 7.08678 0.931037
4476.01 0.974991 0.971184 7.08599 0.930998
4476.38 0.974746 0.97244 7.08519 0.930959
4476.74 0.973269 0.972703 7.09827 0.930919
4477.11 0.970852 0.972012 7.11846 0.930879
4477.48 0.967828 0.970424 7.13972 0.930839
4477.84 0.964522 0.968045 7.16492 0.930798
4478.21 0.961239 0.965031 7.19025 0.930757
4478.57 0.958263 0.961556 7.21041 0.930715
4478.94 0.955694 0.957789 7.22888 0.930674
4479.31 0.953538 0.953902 7.24756 0.930632
4479.67 0.951677 0.950038 7.26665 0.93059
4480.04 0.949784 0.946311 7.28582 0.930548
4480.41 0.947545 0.94285 7.30818 0.930505
4480.77 0.944882 0.939812 7.33126 0.930463
4481.14 0.941817 0.937357 7.35382 0.93042
4481.51 0.938612 0.935625 7.37546 0.930378
4481.87 0.935855 0.934689 7.39721 0.930335
4482.24 0.934192 0.934541 7.40757 0.930293
4482.61 0.934447 0.935111 7.41707 0.93025
4482.97 0.937444 0.936311 7.40593 0.930208
4483.34 0.942643 0.938057 7.37208 0.930166
4483.71 0.948044 0.940296 7.33875 0.930123
4484.07 0.951995 0.942983 7.31997 0.930081
4484.44 0.954432 0.946021 7.30126 0.930039
4484.81 0.955677 0.949242 7.29063 0.929998
4485.18 0.956267 0.952428 7.28612 0.929956
4485.54 0.956924 0.95533 7.28156 0.929915
4485.91 0.958205 0.95772 7.27662 0.929874
4486.28 0.960192 0.959451 7.27169 0.929834
4486.64 0.962824 0.96047 7.2545 0.929794
4487.01 0.965342 0.960802 7.23118 0.929754
4487.38 0.966538 0.960515 7.21151 0.929714
4487.74 0.965921 0.9597 7.20512 0.929676
4488.11 0.964566 0.958431 7.19874 0.929637
4488.48 0.963577 0.956746 7.20924 0.929599
4488.85 0.962591 0.954663 7.22511 0.929562
4489.21 0.960516 0.952197 7.24672 0.929525
4489.58 0.956762 0.949375 7.28118 0.929488
4489.95 0.951582 0.946258 7.3159 0.929453
4490.32 0.945409 0.942947 7.35279 0.929418
4490.68 0.939294 0.939573 7.39028 0.929383
4491.05 0.934506 0.93626 7.41908 0.92935
4491.42 0.931608 0.933119 7.43507 0.929317
4491.79 0.930274 0.930223 7.4511 0.929285
4492.15 0.930014 0.927621 7.46117 0.929253
4492.52 0.929866 0.925366 7.47101 0.929223
4492.89 0.928778 0.923514 7.4875 0.929193
4493.26 0.926581 0.922116 7.51038 0.929164
4493.62 0.923973 0.921209 7.53316 0.929136
4493.99 0.92159 0.92079 7.55291 0.929109
4494.36 0.919761 0.920815 7.57274 0.929083
4494.73 0.918726 0.921235 7.58649 0.929058
4495.09 0.918372 0.92202 7.59643 0.929034
4495.46 0.918328 0.923166 7.60477 0.929011
4495.83 0.918472 0.924696 7.60521 0.928989
4496.2 0.919315 0.926646 7.60564 0.928968
4496.57 0.921414 0.929044 7.58639 0.928948
4496.93 0.924853 0.931905 7.55968 0.928929
4497.3 0.929457 0.935234 7.53091 0.928912
4497.67 0.934939 0.939044 7.49657 0.928896
4498.04 0.940824 0.943348 7.46246 0.928881
4498.41 0.946653 0.948125 7.42869 0.928867
4498.77 0.95224 0.953308 7.39517 0.928855
4499.14 0.957511 0.958806 7.3618 0.928844
4499.51 0.962581 0.964508 7.32854 0.928834
4499.88 0.967814 0.970322 7.2955 0.928826
4500.25 0.973549 0.976197 7.2532 0.928819
4500.61 0.979913 0.982106 7.21066 0.928814
4500.98 0.986954 0.988011 7.16536 0.92881
4501.35 0.994303 0.993829 7.11734 0.928807
4501.72 1.00117 0.999443 7.07069 0.928806
4502.09 1.00691 1.00473 7.04084 0.928807
4502.46 1.01143 1.00959 7.01117 0.928809
4502.82 1.01477 1.01404 6.98892 0.928812
4503.19 1.01732 1.01815 6.9714 0.928817
4503.56 1.0197 1.022 6.95463 0.928824
4503.93 1.02248 1.02568 6.94136 0.928832
4504.3 1.02609 1.02922 6.92813 0.928842
4504.67 1.03082 1.03255 6.90967 0.928853
4505.04 1.03583 1.03561 6.88928 0.928865
4505.4 1.03971 1.03831 6.87276 0.928879
4505.77 1.04178 1.04058 6.86592 0.928894
4506.14 1.04272 1.0424 6.85909 0.928911
4506.51 1.04329 1.04372 6.8577 0.928929
4506.88 1.04371 1.04452 6.85733 0.928948
4507.25 1.04401 1.04479 6.85776 0.928969
4507.62 1.04411 1.0445 6.85941 0.928991
4507.99 1.04381 1.0437 6.86105 0.929014
4508.35 1.04295 1.04249 6.86526 0.929039
4508.72 1.04157 1.04094 6.86958 0.929065
4509.09 1.03978 1.03913 6.88457 0.929092
4509.46 1.03748 1.03711 6.90955 0.929121
4509.83 1.0344 1.03487 6.93535 0.929151
4510.2 1.03042 1.03241 6.96917 0.929182
4510.57 1.02597 1.02976 7.00325 0.929214
4510.94 1.02157 1.02697 7.03035 0.929248
4511.31 1.01748 1.0241 7.05354 0.929283
4511.67 1.01379 1.02118 7.07555 0.929319
4512.04 1.0105 1.0182 7.09256 0.929356
4512.41 1.00745 1.01512 7.10962 0.929395
4512.78 1.00448 1.01195 7.12837 0.929435
4513.15 1.00153 1.00872 7.14769 0.929476
4513.52 0.998613 1.00551 7.16803 0.929518
4513.89 0.995631 1.00245 7.19038 0.929561
4514.26 0.992366 0.999607 7.21284 0.929605
4514.63 0.988692 0.997016 7.23884 0.929651
4515.0 0.985074 0.994653 7.26541 0.929697
4515.37 0.982175 0.992516 7.28577 0.929745
4515.74 0.980384 0.99065 7.29853 0.929793
4516.11 0.979784 0.989165 7.31109 0.929843
4516.48 0.98035 0.988216 7.31004 0.929894
4516.85 0.981712 0.987921 7.30899 0.929946
4517.22 0.983427 0.988257 7.3042 0.929999
4517.58 0.985159 0.989076 7.29672 0.930053
4517.95 0.986661 0.990135 7.28972 0.930108
4518.32 0.987771 0.991182 7.28541 0.930164
4518.69 0.988533 0.99205 7.2811 0.930221
4519.06 0.989021 0.9927 7.27921 0.930279
4519.43 0.989237 0.993149 7.2783 0.930338
4519.8 0.989149 0.993399 7.27742 0.930398
4520.17 0.98882 0.993389 7.27661 0.930459
4520.54 0.988488 0.993007 7.27581 0.93052
4520.91 0.988404 0.992131 7.27089 0.930583
4521.28 0.988807 0.990682 7.26522 0.930647
4521.65 0.989923 0.988639 7.25469 0.930711
4522.02 0.991818 0.986005 7.23726 0.930777
4522.39 0.994356 0.982732 7.21989 0.930843
4522.76 0.99696 0.978701 7.2317 0.93091
4523.13 0.997242 0.973772 7.24415 0.930978
4523.5 0.992474 0.96785 7.28777 0.931047
4523.87 0.982576 0.960954 7.35789 0.931116
4524.24 0.969806 0.953237 7.43004 0.931187
4524.61 0.956337 0.944958 7.51104 0.931258
4524.98 0.943864 0.93641 7.59338 0.93133
4525.35 0.933841 0.927844 7.66412 0.931403
4525.72 0.926005 0.919423 7.72983 0.931476
4526.09 0.919043 0.911246 7.79331 0.931551
4526.46 0.912075 0.903388 7.84842 0.931626
4526.83 0.905091 0.895928 7.90412 0.931702
4527.21 0.898201 0.888972 7.95686 0.931778
4527.58 0.891658 0.882636 8.00937 0.931855
4527.95 0.885772 0.877011 8.05824 0.931933
4528.32 0.88067 0.872125 8.1011 0.932012
4528.69 0.876237 0.867971 8.14431 0.932091
4529.06 0.872347 0.864533 8.18338 0.932171
4529.43 0.86891 0.861823 8.22256 0.932251
4529.8 0.865858 0.85987 8.25971 0.932333
4530.17 0.863345 0.8587 8.29509 0.932414
4530.54 0.861734 0.85829 8.32685 0.932497
4530.91 0.861172 0.858549 8.32691 0.93258
4531.28 0.861169 0.859358 8.32698 0.932663
4531.65 0.86118 0.86064 8.32462 0.932748
4532.02 0.861332 0.862378 8.32113 0.932832
4532.39 0.862166 0.864613 8.31505 0.932918
4532.76 0.863998 0.86741 8.30135 0.933003
4533.14 0.866697 0.870785 8.28769 0.93309
4533.51 0.870067 0.874679 8.26518 0.933177
4533.88 0.873815 0.879023 8.24091 0.933264
4534.25 0.877617 0.883781 8.21285 0.933352
4534.62 0.881497 0.888946 8.17912 0.93344
4534.99 0.885933 0.894518 8.14559 0.933529
4535.36 0.891345 0.900449 8.09543 0.933618
4535.73 0.897784 0.906593 8.04528 0.933708
4536.1 0.905185 0.912732 7.9925 0.933798
4536.47 0.913239 0.918665 7.93771 0.933889
4536.85 0.921418 0.92431 7.88395 0.93398
4537.22 0.92923 0.92973 7.834 0.934071
4537.59 0.936295 0.935065 7.78451 0.934163
4537.96 0.942284 0.940427 7.74172 0.934255
4538.33 0.947154 0.945835 7.70193 0.934347
4538.7 0.951038 0.951172 7.66585 0.93444
4539.07 0.954231 0.956224 7.63892 0.934533
4539.45 0.957328 0.960774 7.61214 0.934627
4539.82 0.960796 0.964688 7.59229 0.93472
4540.19 0.964133 0.967902 7.57369 0.934814
4540.56 0.96647 0.970406 7.56259 0.934909
4540.93 0.967392 0.972218 7.56141 0.935003
4541.3 0.96703 0.973345 7.56026 0.935098
4541.67 0.965662 0.97379 7.56419 0.935193
4542.05 0.964023 0.973591 7.56812 0.935289
4542.42 0.962948 0.972864 7.56881 0.935384
4542.79 0.963099 0.97179 7.56721 0.93548
4543.16 0.964995 0.970576 7.56305 0.935576
4543.53 0.968449 0.969407 7.54584 0.935672
4543.9 0.97153 0.968369 7.52869 0.935769
4544.28 0.972241 0.967418 7.54217 0.935865
4544.65 0.970355 0.966428 7.56637 0.935962
4545.02 0.966583 0.965278 7.59247 0.936059
4545.39 0.961817 0.963913 7.62246 0.936156
4545.76 0.957235 0.96236 7.65263 0.936253
4546.14 0.953886 0.960714 7.67296 0.93635
4546.51 0.951999 0.959075 7.69229 0.936448
4546.88 0.951492 0.957494 7.70336 0.936545
4547.25 0.951364 0.955976 7.70553 0.936642
4547.62 0.949646 0.954532 7.71017 0.93674
4548.0 0.945344 0.953229 7.75192 0.936838
4548.37 0.940849 0.952154 7.794 0.936935
4548.74 0.939039 0.951386 7.80754 0.937033
4549.11 0.940146 0.950931 7.80519 0.93713
4549.48 0.942587 0.950703 7.8023 0.937228
4549.86 0.944997 0.950561 7.79756 0.937326
4550.23 0.946537 0.950391 7.79283 0.937423
4550.6 0.946568 0.950167 7.79355 0.937521
4550.97 0.945453 0.949989 7.79557 0.937619
4551.35 0.94399 0.950001 7.79778 0.937717
4551.72 0.942893 0.950326 7.8003 0.937815
4552.09 0.942767 0.951027 7.80283 0.937912
4552.46 0.94411 0.952095 7.77923 0.93801
4552.84 0.946986 0.953464 7.75507 0.938108
4553.21 0.951321 0.955104 7.72612 0.938206
4553.58 0.956647 0.957048 7.6935 0.938305
4553.95 0.962151 0.959378 7.66206 0.938403
4554.33 0.967168 0.962187 7.63662 0.938501
4554.7 0.971443 0.965532 7.61131 0.9386
4555.07 0.974853 0.969399 7.59091 0.938698
4555.44 0.977874 0.973713 7.57237 0.938797
4555.82 0.981314 0.97837 7.54562 0.938896
4556.19 0.986158 0.983291 7.50097 0.938995
4556.56 0.993676 0.988438 7.45671 0.939094
4556.93 1.00463 0.993789 7.38764 0.939193
4557.31 1.01688 0.999311 7.31671 0.939292
4557.68 1.02737 1.00492 7.26432 0.939392
4558.05 1.03455 1.01045 7.23102 0.939492
4558.43 1.03844 1.01569 7.20013 0.939592
4558.8 1.03942 1.02049 7.19809 0.939692
4559.17 1.03876 1.02467 7.19604 0.939792
4559.55 1.03784 1.02814 7.20308 0.939893
4559.92 1.03697 1.03086 7.21485 0.939993
4560.29 1.03577 1.03276 7.22498 0.940094
4560.66 1.03419 1.0338 7.22998 0.940196
4561.04 1.03289 1.03398 7.23498 0.940297
4561.41 1.03246 1.03338 7.23534 0.940399
4561.78 1.03272 1.03218 7.23477 0.940501
4562.16 1.03316 1.03058 7.23671 0.940603
4562.53 1.03338 1.02881 7.24212 0.940705
4562.9 1.03308 1.027 7.24761 0.940808
4563.28 1.03207 1.02522 7.26048 0.940911
4563.65 1.03049 1.0235 7.27339 0.941014
4564.02 1.02856 1.02187 7.28765 0.941118
4564.4 1.02655 1.02045 7.30284 0.941222
4564.77 1.02479 1.0194 7.3162 0.941326
4565.14 1.02349 1.01883 7.32166 0.941431
4565.52 1.02254 1.01877 7.32712 0.941536
4565.89 1.02182 1.01913 7.33097 0.941641
4566.27 1.02132 1.0197 7.33437 0.941747
4566.64 1.02106 1.02031 7.33623 0.941853
4567.01 1.02111 1.02089 7.33546 0.941959
4567.39 1.02151 1.02149 7.3347 0.942066
4567.76 1.0223 1.02224 7.32795 0.942173
4568.13 1.02344 1.02327 7.32098 0.94228
4568.51 1.02487 1.02459 7.30891 0.942388
4568.88 1.02643 1.02607 7.2928 0.942496
4569.26 1.02788 1.02751 7.27752 0.942605
4569.63 1.02909 1.02873 7.26675 0.942714
4570.0 1.03014 1.02966 7.256 0.942823
4570.38 1.03114 1.03041 7.25249 0.942933
4570.75 1.03183 1.03115 7.25151 0.943044
4571.12 1.0318 1.03199 7.25413 0.943154
4571.5 1.03075 1.03294 7.26395 0.943266
4571.87 1.02865 1.03386 7.27379 0.943377
4572.25 1.02572 1.03458 7.2923 0.94349
4572.62 1.02343 1.03498 7.31155 0.943602
4573.0 1.02355 1.03505 7.31393 0.943715
4573.37 1.02581 1.03495 7.3008 0.943829
4573.74 1.02801 1.03487 7.29016 0.943943
4574.12 1.02862 1.03492 7.29813 0.944058
4574.49 1.02832 1.03507 7.30611 0.944173
4574.87 1.02812 1.03515 7.31393 0.944289
4575.24 1.02835 1.03494 7.32169 0.944405
4575.61 1.02894 1.03421 7.32827 0.944522
4575.99 1.02927 1.03284 7.33213 0.944639
4576.36 1.02777 1.03083 7.33599 0.944757
4576.74 1.02335 1.02829 7.35827 0.944875
4577.11 1.01818 1.02531 7.38263 0.944994
4577.49 1.01537 1.022 7.40205 0.945114
4577.86 1.015 1.01842 7.41646 0.945234
4578.24 1.01415 1.01463 7.43264 0.945355
4578.61 1.01066 1.01067 7.46516 0.945476
4578.99 1.00509 1.00663 7.4979 0.945598
4579.36 0.998537 1.00261 7.5345 0.945721
4579.73 0.99243 0.998776 7.57299 0.945844
4580.11 0.98838 0.995247 7.60795 0.945968
4580.48 0.986579 0.992097 7.6338 0.946093
4580.86 0.98476 0.989328 7.65978 0.946218
4581.23 0.981085 0.98688 7.67422 0.946344
4581.61 0.97746 0.984696 7.68726 0.94647
4581.98 0.976972 0.982786 7.68182 0.946597
4582.36 0.979882 0.981239 7.65718 0.946725
4582.73 0.983544 0.980195 7.63409 0.946853
4583.11 0.985758 0.979805 7.62577 0.946983
4583.48 0.986093 0.980147 7.61745 0.947113
4583.86 0.984605 0.981199 7.62099 0.947243
4584.23 0.982976 0.982871 7.62988 0.947375
4584.61 0.983856 0.985054 7.62912 0.947507
4584.98 0.988065 0.987637 7.60474 0.947639
4585.36 0.993209 0.990534 7.58047 0.947773
4585.73 0.997067 0.993688 7.55273 0.947907
4586.11 1.00019 0.997024 7.52469 0.948042
4586.48 1.00402 1.00044 7.49392 0.948178
4586.86 1.00895 1.00381 7.46037 0.948315
4587.24 1.01421 1.00706 7.42774 0.948452
4587.61 1.01902 1.0101 7.40205 0.94859
4587.99 1.02266 1.01288 7.3765 0.948729
4588.36 1.0245 1.0154 7.36359 0.948869
4588.74 1.02511 1.01761 7.35618 0.949009
4589.11 1.02576 1.01946 7.35033 0.949151
4589.49 1.027 1.02086 7.34809 0.949293
4589.86 1.02811 1.02177 7.34586 0.949436
4590.24 1.02837 1.02212 7.35493 0.94958
4590.61 1.02769 1.02194 7.36526 0.949725
4590.99 1.02619 1.02127 7.3776 0.94987
4591.37 1.02409 1.02017 7.39192 0.950017
4591.74 1.02171 1.01867 7.40628 0.950164
4592.12 1.01934 1.01675 7.42067 0.950312
4592.49 1.01719 1.01444 7.43511 0.950461
4592.87 1.01537 1.01177 7.44772 0.950611
4593.24 1.01353 1.00885 7.4596 0.950762
4593.62 1.01104 1.00586 7.47497 0.950914
4594.0 1.00779 1.00304 7.49777 0.951067
4594.37 1.00453 1.00056 7.52069 0.95122
4594.75 1.00194 0.99853 7.53477 0.951375
4595.12 1.00016 0.996927 7.54816 0.95153
4595.5 0.999165 0.995673 7.5579 0.951687
4595.88 0.998748 0.994684 7.56439 0.951844
4596.25 0.998578 0.993936 7.57052 0.952003
4596.63 0.998397 0.993457 7.5743 0.952162
4597.0 0.998163 0.993303 7.57809 0.952322
4597.38 0.997847 0.993491 7.58284 0.952484
4597.76 0.997219 0.993949 7.58793 0.952646
4598.13 0.99595 0.994537 7.59477 0.952809
4598.51 0.994147 0.995144 7.60483 0.952974
4598.88 0.992558 0.995728 7.61491 0.953139
4599.26 0.991859 0.996329 7.61801 0.953305
4599.64 0.992161 0.99704 7.62081 0.953472
4600.01 0.99339 0.997938 7.6203 0.953639
4600.39 0.99511 0.999019 7.61726 0.953808
4600.77 0.996579 1.0002 7.61536 0.953977
4601.14 0.997371 1.00139 7.61873 0.954147
4601.52 0.997842 1.00254 7.62211 0.954317
4601.9 0.998394 1.00368 7.62733 0.954489
4602.27 0.998937 1.00488 7.63305 0.954661
4602.65 0.999162 1.00625 7.63435 0.954833
4603.03 0.999272 1.00792 7.62888 0.955006
4603.4 1.00015 1.00997 7.62332 0.95518
4603.78 1.00256 1.01246 7.60135 0.955354
4604.16 1.00667 1.01544 7.57948 0.955529
4604.53 1.01242 1.0189 7.54767 0.955704
4604.91 1.01851 1.0228 7.50985 0.95588
4605.29 1.02279 1.02705 7.47607 0.956056
4605.66 1.0246 1.03155 7.45522 0.956232
4606.04 1.02649 1.03621 7.43444 0.956409
4606.42 1.03094 1.04101 7.40483 0.956586
4606.79 1.03738 1.0459 7.37369 0.956763
4607.17 1.04405 1.05085 7.34481 0.956941
4607.55 1.04984 1.05577 7.31861 0.957118
4607.92 1.05441 1.06051 7.29286 0.957296
4608.3 1.05779 1.06491 7.27178 0.957475
4608.68 1.06116 1.06886 7.25079 0.957653
4609.06 1.06581 1.07234 7.22482 0.957831
4609.43 1.07151 1.07546 7.19658 0.95801
4609.81 1.0771 1.07831 7.16878 0.958188
4610.19 1.0817 1.08097 7.14183 0.958367
4610.56 1.08495 1.08338 7.11502 0.958545
4610.94 1.08665 1.08536 7.10775 0.958724
4611.32 1.08723 1.08673 7.10254 0.958902
4611.7 1.08728 1.08743 7.10208 0.95908
4612.07 1.08732 1.08755 7.10602 0.959258
4612.45 1.08775 1.08736 7.10933 0.959436
4612.83 1.08864 1.08717 7.10844 0.959614
4613.21 1.08921 1.08717 7.10755 0.959792
4613.58 1.08866 1.08737 7.11327 0.959969
4613.96 1.08746 1.08762 7.1212 0.960146
4614.34 1.08673 1.08775 7.12306 0.960323
4614.72 1.08712 1.08771 7.1143 0.960499
4615.09 1.08859 1.08763 7.10557 0.960675
4615.47 1.091 1.08774 7.09369 0.960851
4615.85 1.09389 1.08825 7.08179 0.961026
4616.23 1.09674 1.08922 7.07287 0.961201
4616.6 1.09908 1.09049 7.06595 0.961375
4616.98 1.10051 1.09181 7.06186 0.961549
4617.36 1.10095 1.09295 7.06805 0.961722
4617.74 1.101 1.09381 7.07425 0.961895
4618.11 1.10126 1.09446 7.0667 0.962067
4618.49 1.10193 1.09507 7.05641 0.962238
4618.87 1.10301 1.0958 7.04449 0.962409
4619.25 1.10435 1.09669 7.0306 0.962579
4619.63 1.10558 1.09764 7.01718 0.962749
4620.0 1.10637 1.09847 7.00964 0.962917
4620.38 1.10643 1.09902 7.00211 0.963085
4620.76 1.10552 1.09925 7.00598 0.963252
4621.14 1.10377 1.0992 7.01501 0.963418
4621.52 1.10152 1.09902 7.02672 0.963583
4621.89 1.09912 1.09885 7.04444 0.963748
4622.27 1.09686 1.09878 7.06224 0.963911
4622.65 1.09497 1.0988 7.07563 0.964073
4623.03 1.09345 1.0988 7.08871 0.964235
4623.41 1.0922 1.0987 7.10173 0.964395
4623.79 1.09115 1.09842 7.11471 0.964555
4624.16 1.09031 1.09795 7.12763 0.964713
4624.54 1.0897 1.09734 7.14006 0.96487
4624.92 1.08951 1.09669 7.15253 0.965026
4625.3 1.08992 1.09608 7.15127 0.965181
4625.68 1.09092 1.09557 7.14637 0.965335
4626.06 1.09242 1.09515 7.13555 0.965488
4626.43 1.0941 1.09478 7.11636 0.965639
4626.81 1.09543 1.09439 7.0977 0.965789
4627.19 1.09599 1.09396 7.09168 0.965937
4627.57 1.0959 1.09348 7.08567 0.966085
4627.95 1.09539 1.09302 7.08533 0.966231
4628.33 1.09484 1.09267 7.08793 0.966375
4628.71 1.09474 1.09249 7.08721 0.966518
4629.09 1.09519 1.09245 7.07798 0.96666
4629.46 1.09561 1.09242 7.06876 0.9668
4629.84 1.09538 1.09226 7.07645 0.966938
4630.22 1.09405 1.09178 7.08595 0.967076
4630.6 1.09128 1.0909 7.10511 0.967211
4630.98 1.08748 1.08967 7.133 0.967345
4631.36 1.08374 1.0882 7.16001 0.967477
4631.74 1.081 1.08661 7.18129 0.967608
4632.12 1.07966 1.08495 7.20267 0.967736
4632.5 1.07984 1.08318 7.20495 0.967864
4632.87 1.08014 1.08118 7.20179 0.967989
4633.25 1.07845 1.07883 7.20989 0.968112
4633.63 1.07452 1.07608 7.2347 0.968234
4634.01 1.07041 1.07296 7.25933 0.968354
4634.39 1.06768 1.06953 7.27371 0.968472
4634.77 1.06537 1.06585 7.28813 0.968588
4635.15 1.06205 1.062 7.31396 0.968702
4635.53 1.0573 1.058 7.34592 0.968815
4635.91 1.05138 1.05391 7.38152 0.968925
4636.29 1.04522 1.04986 7.42615 0.969033
4636.67 1.04083 1.046 7.47119 0.969139
4637.05 1.03971 1.04245 7.47621 0.969243
4637.42 1.03996 1.03927 7.47728 0.969345
4637.8 1.03871 1.03645 7.48758 0.969445
4638.18 1.03561 1.03394 7.50585 0.969542
4638.56 1.03261 1.03169 7.52309 0.969638
4638.94 1.03109 1.02972 7.53487 0.969731
4639.32 1.03074 1.02806 7.54668 0.969822
4639.7 1.03097 1.0267 7.55665 0.96991
4640.08 1.03073 1.02559 7.56615 0.969997
4640.46 1.02884 1.0246 7.57947 0.970081
4640.84 1.02554 1.02354 7.59798 0.970162
4641.22 1.02282 1.0223 7.61545 0.970241
4641.6 1.02207 1.02084 7.6135 0.970318
4641.98 1.02235 1.0192 7.61156 0.970392
4642.36 1.02226 1.01745 7.61838 0.970464
4642.74 1.02126 1.01561 7.62926 0.970533
4643.12 1.01932 1.01358 7.64393 0.9706
4643.5 1.01651 1.01123 7.66688 0.970664
4643.88 1.0131 1.00844 7.68994 0.970725
4644.26 1.00935 1.00519 7.72137 0.970784
4644.64 1.00531 1.00162 7.75347 0.97084
4645.02 1.001 0.997982 7.78061 0.970894
4645.4 0.996371 0.994544 7.80411 0.970944
4645.78 0.991309 0.991511 7.82978 0.970992
4646.16 0.986082 0.98898 7.8634 0.971037
4646.54 0.981773 0.986947 7.89723 0.97108
4646.92 0.979434 0.985384 7.90705 0.971119
4647.3 0.979216 0.984317 7.91234 0.971156
4647.68 0.98089 0.983829 7.9049 0.97119
4648.06 0.983712 0.984049 7.88346 0.971222
4648.44 0.986381 0.985077 7.86392 0.971251
4648.82 0.988112 0.98692 7.85941 0.971278
4649.2 0.989688 0.989469 7.85491 0.971302
4649.58 0.992088 0.992562 7.84382 0.971324
4649.96 0.99554 0.996027 7.83048 0.971344
4650.34 0.999872 0.999733 7.81201 0.971362
4650.72 1.0048 1.00358 7.7851 0.971377
4651.1 1.00988 1.00749 7.75828 0.971391
4651.48 1.01468 1.01133 7.72772 0.971402
4651.87 1.01878 1.015 7.69733 0.971412
4652.25 1.02182 1.01838 7.67372 0.971419
4652.63 1.02363 1.02144 7.65381 0.971425
4653.01 1.02417 1.02426 7.64045 0.971429
4653.39 1.02397 1.02695 7.64359 0.971431
4653.77 1.02451 1.0296 7.64673 0.971432
4654.15 1.02708 1.03229 7.62499 0.971431
4654.53 1.03141 1.03502 7.60114 0.971428
4654.91 1.03672 1.03777 7.57291 0.971425
4655.29 1.04216 1.04054 7.54126 0.971419
4655.67 1.04681 1.0434 7.51111 0.971413
4656.05 1.05012 1.0464 7.48665 0.971405
4656.43 1.05245 1.04959 7.46231 0.971395
4656.82 1.05427 1.05298 7.44919 0.971385
4657.2 1.05626 1.05653 7.43839 0.971374
4657.58 1.05911 1.06013 7.4205 0.971361
4657.96 1.063 1.06368 7.39461 0.971348
4658.34 1.06759 1.06706 7.36877 0.971334
4658.72 1.07245 1.07018 7.34233 0.971318
4659.1 1.07705 1.07292 7.31604 0.971302
4659.48 1.08086 1.07519 7.29676 0.971286
4659.87 1.08353 1.07687 7.27992 0.971268
4660.25 1.08479 1.07784 7.27321 0.97125
4660.63 1.0844 1.07799 7.28273 0.971232
4661.01 1.08214 1.07718 7.29285 0.971213
4661.39 1.07794 1.0753 7.32759 0.971194
4661.77 1.07228 1.07226 7.36258 0.971174
4662.15 1.06574 1.06805 7.39902 0.971154
4662.53 1.05892 1.06271 7.43637 0.971133
4662.92 1.0524 1.05635 7.47315 0.971113
4663.3 1.04655 1.04913 7.50829 0.971092
4663.68 1.04137 1.04124 7.54367 0.971072
4664.06 1.03667 1.03287 7.57545 0.971051
4664.44 1.03144 1.02421 7.6072 0.97103
4664.82 1.02448 1.01549 7.65982 0.97101
4665.21 1.01557 1.00697 7.72774 0.97099
4665.59 1.00529 0.998925 7.79662 0.97097
4665.97 0.994391 0.991646 7.86657 0.97095
4666.35 0.98393 0.985364 7.93747 0.970931
4666.73 0.974943 0.980214 7.99553 0.970912
4667.11 0.96805 0.976223 8.05217 0.970893
4667.5 0.963685 0.97333 8.0942 0.970876
4667.88 0.961572 0.971431 8.12211 0.970858
4668.26 0.960756 0.970443 8.14572 0.970842
4668.64 0.960582 0.97035 8.14568 0.970826
4669.02 0.961225 0.97119 8.14563 0.970811
4669.41 0.962985 0.972997 8.12724 0.970797
4669.79 0.96615 0.97576 8.10441 0.970783
4670.17 0.97099 0.97941 8.07275 0.970771
4670.55 0.977417 0.983818 8.03028 0.97076
4670.93 0.984931 0.988836 7.98713 0.97075
4671.32 0.992857 0.994326 7.93424 0.970741
4671.7 1.00006 1.00016 7.88186 0.970733
4672.08 1.00545 1.00619 7.84985 0.970727
4672.46 1.00913 1.01221 7.82511 0.970722
4672.85 1.01182 1.01799 7.80121 0.970718
4673.23 1.01429 1.02327 7.77857 0.970716
4673.61 1.01736 1.02788 7.7559 0.970715
4673.99 1.02159 1.03172 7.72889 0.970716
4674.38 1.02673 1.03478 7.70202 0.970719
4674.76 1.03228 1.03711 7.67631 0.970723
4675.14 1.0373 1.03874 7.65122 0.970729
4675.52 1.04056 1.03973 7.63351 0.970737
4675.91 1.04114 1.0401 7.63118 0.970747
4676.29 1.03864 1.0399 7.62885 0.970759
4676.67 1.03322 1.03919 7.6552 0.970772
4677.05 1.02758 1.03808 7.68263 0.970788
4677.44 1.02487 1.03668 7.68689 0.970806
4677.82 1.02572 1.03509 7.67671 0.970827
4678.2 1.02885 1.03339 7.66445 0.970849
4678.58 1.03253 1.03161 7.64639 0.970874
4678.97 1.0342 1.02976 7.6284 0.970901
4679.35 1.03195 1.02786 7.6556 0.970931
4679.73 1.02748 1.02594 7.68724 0.970963
4680.12 1.0236 1.02408 7.70921 0.970998
4680.5 1.02149 1.0224 7.72361 0.971035
4680.88 1.02099 1.02104 7.73369 0.971075
4681.26 1.02168 1.02011 7.72772 0.971118
4681.65 1.02272 1.01966 7.72175 0.971163
4682.03 1.0233 1.01966 7.71308 0.971212
4682.41 1.02312 1.02005 7.70399 0.971263
4682.8 1.02208 1.02075 7.70039 0.971318
4683.18 1.02113 1.02173 7.70196 0.971375
4683.56 1.0222 1.023 7.69868 0.971436
4683.95 1.0261 1.02459 7.67096 0.9715
4684.33 1.03088 1.02646 7.64339 0.971567
4684.71 1.03438 1.02854 7.63341 0.971637
4685.1 1.03612 1.03063 7.62738 0.971711
4685.48 1.03636 1.03254 7.62717 0.971788
4685.86 1.03563 1.0341 7.63355 0.971869
4686.25 1.03477 1.03524 7.64041 0.971953
4686.63 1.03453 1.036 7.6507 0.97204
4687.01 1.03537 1.03647 7.66101 0.972132
4687.4 1.03753 1.03678 7.65607 0.972227
4687.78 1.04009 1.03699 7.64668 0.972326
4688.16 1.04159 1.0371 7.63611 0.972429
4688.55 1.04164 1.03709 7.62397 0.972536
4688.93 1.04119 1.03691 7.61234 0.972646
4689.31 1.04104 1.03662 7.60624 0.972761
4689.7 1.04127 1.03631 7.60015 0.97288
4690.08 1.04176 1.03611 7.60192 0.973003
4690.47 1.04175 1.03616 7.60652 0.97313
4690.85 1.04015 1.03652 7.61793 0.973262
4691.23 1.03729 1.03714 7.64004 0.973397
4691.62 1.03538 1.03796 7.66067 0.973538
4692.0 1.03607 1.03885 7.64798 0.973682
4692.39 1.03851 1.03978 7.63533 0.973832
4692.77 1.04137 1.04071 7.62196 0.973985
4693.15 1.04393 1.04165 7.60832 0.974144
4693.54 1.04589 1.04261 7.59609 0.974307
4693.92 1.04725 1.04353 7.58638 0.974475
4694.31 1.04852 1.0443 7.57671 0.974648
4694.69 1.05 1.04482 7.56893 0.974825
4695.07 1.05109 1.04498 7.56116 0.975008
4695.46 1.05107 1.0447 7.56211 0.975196
4695.84 1.05035 1.04393 7.56734 0.975388
4696.23 1.05006 1.0427 7.57268 0.975586
4696.61 1.05052 1.04105 7.57824 0.975788
4696.99 1.0507 1.03909 7.58381 0.975996
4697.38 1.04952 1.03686 7.60067 0.976208
4697.76 1.046 1.03438 7.61776 0.976424
4698.15 1.03938 1.03165 7.65255 0.976645
4698.53 1.031 1.02861 7.69743 0.976871
4698.92 1.02364 1.02524 7.73855 0.977101
4699.3 1.01874 1.02162 7.77034 0.977335
4699.69 1.01545 1.01789 7.80234 0.977574
4700.07 1.01283 1.01427 7.82228 0.977817
4700.45 1.01053 1.01091 7.8418 0.978064
4700.84 1.00839 1.00796 7.85704 0.978315
4701.22 1.0064 1.00547 7.86965 0.97857
4701.61 1.00466 1.00345 7.88168 0.978828
4701.99 1.00321 1.00188 7.89216 0.979091
4702.38 1.00205 1.00076 7.90267 0.979357
4702.76 1.00116 1.00007 7.9031 0.979627
4703.15 1.0005 0.999759 7.90292 0.979901
4703.53 1.00003 0.999757 7.90027 0.980178
4703.92 0.999822 0.999981 7.896 0.980458
4704.3 1.00002 1.00036 7.892 0.980742
4704.69 1.00073 1.00086 7.88869 0.981029
4705.07 1.00197 1.00151 7.88539 0.981319
4705.46 1.00373 1.00238 7.88432 0.981612
4705.84 1.00579 1.00356 7.88343 0.981909
4706.23 1.00793 1.0051 7.87678 0.982208
4706.61 1.01008 1.00698 7.86612 0.98251
4707.0 1.01239 1.00914 7.85321 0.982815
4707.38 1.01489 1.01147 7.8336 0.983123
4707.77 1.01749 1.01389 7.81406 0.983433
4708.15 1.02005 1.01638 7.79437 0.983746
4708.54 1.02252 1.01894 7.77472 0.984062
4708.92 1.02482 1.02155 7.75676 0.98438
4709.31 1.02696 1.02416 7.74003 0.9847
4709.69 1.029 1.02668 7.72366 0.985023
4710.08 1.031 1.02904 7.7083 0.985347
4710.46 1.033 1.03121 7.69299 0.985674
4710.85 1.03506 1.0333 7.68259 0.986003
4711.23 1.03718 1.03546 7.67271 0.986334
4711.62 1.03931 1.03785 7.66238 0.986667
4712.01 1.0415 1.04054 7.65171 0.987001
4712.39 1.04381 1.04353 7.6399 0.987338
4712.78 1.04635 1.04673 7.62441 0.987676
4713.16 1.04924 1.0501 7.60897 0.988015
4713.55 1.05256 1.05364 7.58227 0.988356
4713.93 1.05623 1.05739 7.55451 0.988699
4714.32 1.06007 1.06142 7.53193 0.989043
4714.71 1.06402 1.06572 7.51322 0.989388
4715.09 1.06806 1.07022 7.49419 0.989734
4715.48 1.07224 1.07482 7.47399 0.990082
4715.86 1.07667 1.07947 7.45387 0.99043
4716.25 1.08148 1.08417 7.42601 0.99078
4716.63 1.08677 1.08901 7.39748 0.99113
4717.02 1.09262 1.09407 7.35758 0.991482
4717.41 1.09895 1.09939 7.30944 0.991834
4717.79 1.10558 1.10491 7.2648 0.992187
4718.18 1.11215 1.11049 7.2301 0.99254
4718.56 1.11793 1.11596 7.19565 0.992894
4718.95 1.12235 1.12115 7.17342 0.993248
4719.34 1.12568 1.12595 7.15251 0.993603
4719.72 1.12852 1.13028 7.1346 0.993958
4720.11 1.1315 1.1341 7.11888 0.994313
4720.5 1.13533 1.13744 7.10132 0.994668
4720.88 1.14006 1.14028 7.07804 0.995023
4721.27 1.14452 1.14262 7.05487 0.995379
4721.65 1.14755 1.14442 7.04468 0.995734
4722.04 1.14856 1.1456 7.03569 0.996089
4722.43 1.14723 1.14606 7.03463 0.996444
4722.81 1.14416 1.14575 7.03916 0.996799
4723.2 1.14065 1.14461 7.04427 0.997153
4723.59 1.13785 1.14265 7.05106 0.997506
4723.97 1.13649 1.13994 7.05786 0.99786
4724.36 1.1368 1.13652 7.05438 0.998212
4724.75 1.13674 1.13243 7.0501 0.998564
4725.13 1.13366 1.12774 7.07033 0.998915
4725.52 1.12719 1.12251 7.10711 0.999265
4725.91 1.11864 1.11684 7.14668 0.999615
4726.29 1.10934 1.11094 7.19332 0.999963
4726.68 1.10046 1.10503 7.24042 1.00031
4727.07 1.09304 1.09931 7.28434 1.00066
4727.45 1.0873 1.09387 7.32844 1.001
4727.84 1.08314 1.08873 7.36343 1.00134
4728.23 1.07929 1.08379 7.39274 1.00169
4728.61 1.07361 1.07899 7.42523 1.00203
4729.0 1.06569 1.07437 7.46526 1.00237
4729.39 1.05817 1.07014 7.50563 1.0027
4729.77 1.05343 1.0666 7.52326 1.00304
4730.16 1.05137 1.06406 7.54013 1.00337
4730.55 1.05114 1.0627 7.54772 1.00371
4730.93 1.05187 1.06248 7.55007 1.00404
4731.32 1.05263 1.06318 7.54976 1.00436
4731.71 1.05323 1.06451 7.54364 1.00469
4732.1 1.05471 1.06623 7.53753 1.00502
4732.48 1.05789 1.06828 7.51431 1.00534
4732.87 1.06224 1.07069 7.49103 1.00566
4733.26 1.06691 1.07352 7.46864 1.00597
4733.64 1.07129 1.07675 7.44675 1.00629
4734.03 1.07497 1.08024 7.42896 1.0066
4734.42 1.07765 1.08377 7.41895 1.00691
4734.81 1.07922 1.08717 7.40923 1.00722
4735.19 1.07963 1.09041 7.41423 1.00752
4735.58 1.07896 1.09358 7.41924 1.00782
4735.97 1.0775 1.09681 7.41566 1.00812
4736.36 1.07732 1.10017 7.4083 1.00842
4736.74 1.08145 1.10358 7.38528 1.00871
4737.13 1.09028 1.10685 7.3362 1.009
4737.52 1.10045 1.10982 7.28801 1.00929
4737.91 1.10883 1.11239 7.24793 1.00957
4738.29 1.11394 1.11466 7.20818 1.00985
4738.68 1.11502 1.11681 7.18735 1.01012
4739.07 1.11447 1.11905 7.17352 1.0104
4739.46 1.11629 1.1215 7.15655 1.01067
4739.85 1.12157 1.12416 7.13503 1.01093
4740.23 1.12762 1.12692 7.11408 1.01119
4740.62 1.1323 1.12962 7.09833 1.01145
4741.01 1.13591 1.13216 7.08262 1.0117
4741.4 1.13914 1.13447 7.06213 1.01195
4741.79 1.14228 1.13658 7.04025 1.0122
4742.17 1.14541 1.13856 7.0169 1.01244
4742.56 1.14806 1.14043 6.99172 1.01268
4742.95 1.14915 1.14224 6.97126 1.01291
4743.34 1.14855 1.14404 6.98254 1.01314
4743.73 1.14888 1.1459 6.99385 1.01336
4744.11 1.15271 1.14786 6.98011 1.01358
4744.5 1.15894 1.14996 6.96046 1.0138
4744.89 1.16492 1.15216 6.93898 1.01401
4745.28 1.16891 1.15437 6.9156 1.01422
4745.67 1.1702 1.1565 6.89385 1.01442
4746.05 1.16887 1.15844 6.87948 1.01461
4746.44 1.16689 1.16015 6.86516 1.01481
4746.83 1.16625 1.16162 6.87506 1.01499
4747.22 1.1671 1.16285 6.88917 1.01518
4747.61 1.16888 1.16383 6.89853 1.01535
4748.0 1.17062 1.16452 6.90376 1.01553
4748.39 1.17093 1.16488 6.91126 1.0157
4748.77 1.16903 1.16485 6.92685 1.01586
4749.16 1.16542 1.1644 6.9425 1.01602
4749.55 1.16095 1.16354 6.96502 1.01618
4749.94 1.15753 1.16227 6.98838 1.01633
4750.33 1.15721 1.1606 6.99688 1.01647
4750.72 1.15869 1.15855 6.99485 1.01662
4751.11 1.15803 1.15616 6.99694 1.01676
4751.49 1.15372 1.1535 7.01012 1.01689
4751.88 1.14888 1.15064 7.02335 1.01702
4752.27 1.14651 1.1477 7.02391 1.01715
4752.66 1.14691 1.14477 7.0239 1.01727
4753.05 1.1494 1.1419 7.01994 1.01739
4753.44 1.15144 1.13914 7.01378 1.0175
4753.83 1.14917 1.13651 7.02178 1.01761
4754.22 1.14204 1.13399 7.05908 1.01772
4754.61 1.13463 1.13165 7.09633 1.01782
4754.99 1.13082 1.12954 7.10751 1.01792
4755.38 1.13 1.12774 7.11871 1.01801
4755.77 1.13051 1.12631 7.12687 1.0181
4756.16 1.13122 1.12524 7.13374 1.01819
4756.55 1.13131 1.12448 7.14075 1.01827
4756.94 1.13051 1.12393 7.14801 1.01835
4757.33 1.12932 1.1235 7.1553 1.01843
4757.72 1.12836 1.12312 7.16278 1.0185
4758.11 1.12851 1.12275 7.17027 1.01857
4758.5 1.13047 1.1223 7.16802 1.01864
4758.89 1.13282 1.12166 7.16273 1.0187
4759.28 1.13316 1.12068 7.16935 1.01876
4759.67 1.13039 1.11922 7.19052 1.01881
4760.05 1.1249 1.11722 7.21442 1.01886
4760.44 1.11766 1.11473 7.25472 1.01891
4760.83 1.11102 1.11188 7.29537 1.01895
4761.22 1.10712 1.10882 7.31196 1.019
4761.61 1.1052 1.10564 7.32358 1.01903
4762.0 1.1034 1.10237 7.33823 1.01907
4762.39 1.10079 1.09897 7.35574 1.0191
4762.78 1.09739 1.0954 7.37543 1.01913
4763.17 1.09333 1.09167 7.40327 1.01916
4763.56 1.08898 1.0879 7.43128 1.01918
4763.95 1.08472 1.08427 7.46405 1.0192
4764.34 1.08101 1.08105 7.49755 1.01921
4764.73 1.0783 1.07847 7.52369 1.01923
4765.12 1.07646 1.07669 7.54469 1.01924
4765.51 1.07493 1.07576 7.56058 1.01925
4765.9 1.07367 1.0756 7.56328 1.01925
4766.29 1.07366 1.07611 7.56598 1.01925
4766.68 1.07575 1.07717 7.54679 1.01925
4767.07 1.07967 1.0787 7.52711 1.01925
4767.46 1.08484 1.08071 7.49913 1.01925
4767.85 1.09014 1.0832 7.46714 1.01924
4768.24 1.0941 1.08613 7.44165 1.01923
4768.63 1.09631 1.08945 7.42748 1.01921
4769.02 1.09783 1.09307 7.41313 1.0192
4769.41 1.09965 1.09693 7.3949 1.01918
4769.8 1.10212 1.10101 7.37673 1.01916
4770.19 1.10539 1.10527 7.35922 1.01913
4770.58 1.10944 1.10969 7.34196 1.01911
4770.97 1.11414 1.11418 7.32447 1.01908
4771.36 1.11926 1.11862 7.30668 1.01905
4771.75 1.12447 1.12291 7.28792 1.01901
4772.14 1.12933 1.12699 7.26263 1.01898
4772.53 1.13324 1.13082 7.23748 1.01894
4772.92 1.13574 1.1344 7.21704 1.0189
4773.31 1.13768 1.13771 7.19763 1.01886
4773.71 1.14035 1.14077 7.17545 1.01882
4774.1 1.14413 1.14356 7.15081 1.01877
4774.49 1.1485 1.14614 7.12689 1.01872
4774.88 1.15256 1.14856 7.10517 1.01867
4775.27 1.15472 1.15086 7.08356 1.01862
4775.66 1.154 1.15306 7.09369 1.01857
4776.05 1.15293 1.15511 7.10673 1.01851
4776.44 1.15488 1.15689 7.09389 1.01845
4776.83 1.15943 1.15823 7.06489 1.0184
4777.22 1.16334 1.15902 7.04527 1.01833
4777.61 1.16443 1.15919 7.04613 1.01827
4778.0 1.16228 1.15872 7.04725 1.01821
4778.39 1.15718 1.15768 7.07961 1.01814
4778.79 1.15133 1.15618 7.11221 1.01807
4779.18 1.14716 1.15433 7.13706 1.018
4779.57 1.14471 1.1522 7.15872 1.01793
4779.96 1.14262 1.14983 7.17912 1.01786
4780.35 1.1403 1.14721 7.19758 1.01779
4780.74 1.13812 1.14428 7.21564 1.01771
4781.13 1.13632 1.14103 7.22967 1.01764
4781.52 1.13463 1.13755 7.24374 1.01756
4781.91 1.13262 1.13399 7.25722 1.01748
4782.31 1.12962 1.13057 7.27059 1.0174
4782.7 1.12492 1.12746 7.29141 1.01732
4783.09 1.11921 1.12469 7.31972 1.01723
4783.48 1.11464 1.12215 7.34315 1.01715
4783.87 1.11236 1.11968 7.3468 1.01706
4784.26 1.11121 1.11714 7.35045 1.01698
4784.65 1.10988 1.11457 7.36062 1.01689
4785.05 1.10786 1.11217 7.37151 1.0168
4785.44 1.10499 1.11022 7.3876 1.01671
4785.83 1.10191 1.10892 7.40713 1.01662
4786.22 1.09988 1.1083 7.42028 1.01653
4786.61 1.09972 1.10822 7.41876 1.01644
4787.0 1.10143 1.10841 7.41718 1.01634
4787.39 1.10473 1.10871 7.40557 1.01625
4787.79 1.10842 1.10912 7.39399 1.01615
4788.18 1.11118 1.10985 7.38606 1.01606
4788.57 1.11258 1.11116 7.37962 1.01596
4788.96 1.11274 1.11325 7.37522 1.01586
4789.35 1.11248 1.11615 7.37369 1.01577
4789.75 1.11352 1.11971 7.36998 1.01567
4790.14 1.11693 1.12369 7.34963 1.01557
4790.53 1.1217 1.12787 7.32935 1.01547
4790.92 1.12667 1.13221 7.29691 1.01537
4791.31 1.13191 1.13671 7.262 1.01527
4791.71 1.13799 1.14144 7.22403 1.01517
4792.1 1.14503 1.14645 7.18337 1.01507
4792.49 1.15273 1.15162 7.14318 1.01497
4792.88 1.16041 1.15675 7.10381 1.01487
4793.27 1.16667 1.16159 7.06476 1.01477
4793.67 1.17046 1.16589 7.05092 1.01466
4794.06 1.17284 1.16953 7.0389 1.01456
4794.45 1.17543 1.1725 7.02456 1.01446
4794.84 1.17827 1.17486 7.00893 1.01436
4795.24 1.18035 1.17669 6.99773 1.01425
4795.63 1.18101 1.17804 6.99491 1.01415
4796.02 1.18009 1.17889 6.99294 1.01405
4796.41 1.17779 1.1792 7.00695 1.01395
4796.8 1.17552 1.17894 7.02099 1.01384
4797.2 1.17469 1.17812 7.02804 1.01374
4797.59 1.17497 1.17685 7.03284 1.01364
4797.98 1.17519 1.17528 7.03867 1.01354
4798.37 1.17474 1.17361 7.0457 1.01343
4798.77 1.17369 1.17202 7.05256 1.01333
4799.16 1.17222 1.17063 7.05862 1.01323
4799.55 1.17065 1.16945 7.06469 1.01313
4799.95 1.16932 1.16843 7.06824 1.01303
4800.34 1.16851 1.16747 7.07146 1.01293
4800.73 1.16843 1.16654 7.07153 1.01283
4801.12 1.16891 1.16565 7.06941 1.01273
4801.52 1.16944 1.16487 7.07014 1.01262
4801.91 1.16963 1.16424 7.07761 1.01252
4802.3 1.16918 1.16377 7.08517 1.01243
4802.7 1.16789 1.16336 7.10342 1.01233
4803.09 1.16583 1.16292 7.12175 1.01223
4803.48 1.16316 1.16236 7.14784 1.01213
4803.87 1.16037 1.16164 7.17716 1.01203
4804.27 1.15807 1.16078 7.1977 1.01193
4804.66 1.1564 1.15981 7.20622 1.01184
4805.05 1.15484 1.1587 7.21455 1.01174
4805.45 1.15305 1.15742 7.22163 1.01165
4805.84 1.15123 1.15592 7.22873 1.01155
4806.23 1.14966 1.15423 7.2326 1.01146
4806.63 1.14855 1.15246 7.2359 1.01136
4807.02 1.14804 1.15078 7.23598 1.01127
4807.41 1.14775 1.14936 7.23351 1.01118
4807.81 1.14689 1.1483 7.23528 1.01108
4808.2 1.1453 1.1476 7.24855 1.01099
4808.59 1.14397 1.14722 7.26185 1.0109
4808.99 1.14376 1.14708 7.26605 1.01081
4809.38 1.14444 1.14717 7.27009 1.01072
4809.77 1.14548 1.1475 7.27002 1.01064
4810.17 1.14634 1.1481 7.26815 1.01055
4810.56 1.14649 1.14902 7.26528 1.01046
4810.95 1.14618 1.15022 7.26095 1.01038
4811.35 1.14662 1.15168 7.25548 1.01029
4811.74 1.14858 1.15333 7.24177 1.01021
4812.14 1.15143 1.15512 7.2281 1.01013
4812.53 1.15437 1.15705 7.21299 1.01004
4812.92 1.15713 1.15912 7.19764 1.00996
4813.32 1.15967 1.16135 7.18213 1.00988
4813.71 1.16215 1.16376 7.1665 1.00981
4814.1 1.16483 1.16634 7.15127 1.00973
4814.5 1.16791 1.16904 7.13705 1.00965
4814.89 1.17139 1.17175 7.12286 1.00958
4815.29 1.17518 1.17439 7.11345 1.0095
4815.68 1.17873 1.17686 7.10414 1.00943
4816.07 1.18149 1.17912 7.09746 1.00936
4816.47 1.18335 1.1812 7.09192 1.00929
4816.86 1.18453 1.18314 7.08636 1.00922
4817.26 1.18537 1.18493 7.08075 1.00915
4817.65 1.18639 1.18648 7.07413 1.00908
4818.04 1.18787 1.18762 7.06055 1.00902
4818.44 1.18946 1.18817 7.04701 1.00896
4818.83 1.1907 1.18799 7.04818 1.00889
4819.23 1.19093 1.18705 7.05206 1.00883
4819.62 1.18947 1.18545 7.06587 1.00877
4820.02 1.18629 1.18332 7.08748 1.00871
4820.41 1.18197 1.18075 7.11156 1.00866
4820.8 1.1773 1.17784 7.14185 1.0086
4821.2 1.17348 1.17463 7.17233 1.00855
4821.59 1.17134 1.17116 7.18236 1.00849
4821.99 1.17007 1.16756 7.19236 1.00844
4822.38 1.16854 1.16401 7.19965 1.00839
4822.78 1.16653 1.16063 7.20586 1.00835
4823.17 1.16434 1.15751 7.21517 1.0083
4823.57 1.16204 1.1546 7.2285 1.00826
4823.96 1.15951 1.15182 7.24346 1.00821
4824.36 1.15647 1.14909 7.26721 1.00817
4824.75 1.15246 1.14644 7.29107 1.00813
4825.15 1.14718 1.14397 7.32705 1.0081
4825.54 1.14186 1.14184 7.36504 1.00806
4825.94 1.13817 1.14015 7.39113 1.00803
4826.33 1.13627 1.13892 7.40903 1.00799
4826.72 1.13518 1.13804 7.42519 1.00796
4827.12 1.13417 1.13738 7.43746 1.00794
4827.51 1.133 1.13682 7.44964 1.00791
4827.91 1.13177 1.1363 7.45851 1.00788
4828.3 1.13166 1.13581 7.46741 1.00786
4828.7 1.13379 1.13537 7.45559 1.00784
4829.09 1.13689 1.13493 7.43724 1.00782
4829.49 1.13856 1.13444 7.42761 1.00781
4829.89 1.13808 1.13386 7.42735 1.00779
4830.28 1.13646 1.13323 7.42838 1.00778
4830.68 1.13471 1.13263 7.43452 1.00777
4831.07 1.13361 1.13219 7.44066 1.00776
4831.47 1.13366 1.13201 7.44699 1.00775
4831.86 1.13383 1.1321 7.45335 1.00775
4832.26 1.13283 1.13244 7.45761 1.00775
4832.65 1.13163 1.13294 7.46073 1.00775
4833.05 1.1327 1.13354 7.45255 1.00775
4833.44 1.13681 1.13417 7.42547 1.00775
4833.84 1.14228 1.13481 7.39884 1.00776
4834.23 1.14731 1.13541 7.37509 1.00777
4834.63 1.15016 1.13595 7.35146 1.00778
4835.03 1.14948 1.13637 7.35407 1.0078
4835.42 1.14628 1.13664 7.36237 1.00781
4835.82 1.14256 1.13673 7.38074 1.00783
4836.21 1.13947 1.13662 7.40756 1.00785
4836.61 1.13744 1.13629 7.43132 1.00788
4837.0 1.13657 1.13571 7.44659 1.0079
4837.4 1.13646 1.13486 7.46191 1.00793
4837.8 1.13662 1.13372 7.47052 1.00796
4838.19 1.13638 1.13233 7.47912 1.00799
4838.59 1.13507 1.1308 7.48822 1.00803
4838.98 1.13243 1.12925 7.49751 1.00807
4839.38 1.12846 1.1278 7.51168 1.00811
4839.77 1.12388 1.12651 7.53184 1.00815
4840.17 1.12022 1.12538 7.54922 1.0082
4840.57 1.11857 1.12438 7.55343 1.00825
4840.96 1.1189 1.12352 7.55764 1.0083
4841.36 1.12091 1.12288 7.55079 1.00836
4841.75 1.12358 1.12257 7.54279 1.00841
4842.15 1.12573 1.12273 7.53572 1.00847
4842.55 1.12688 1.12338 7.52919 1.00854
4842.94 1.12704 1.12443 7.52702 1.0086
4843.34 1.12653 1.12568 7.53252 1.00867
4843.74 1.12601 1.12693 7.53758 1.00874
4844.13 1.12606 1.12809 7.53822 1.00882
4844.53 1.12677 1.12918 7.53886 1.00889
4844.92 1.12807 1.13035 7.53569 1.00897
4845.32 1.12947 1.13174 7.5317 1.00906
4845.72 1.1303 1.13333 7.53333 1.00914
4846.11 1.13026 1.13496 7.53959 1.00923
4846.51 1.12932 1.1364 7.54537 1.00932
4846.91 1.12784 1.13746 7.54987 1.00942
4847.3 1.12688 1.1381 7.55429 1.00952
4847.7 1.12733 1.1384 7.54988 1.00962
4848.1 1.12925 1.1385 7.54548 1.00972
4848.49 1.13235 1.13846 7.53512 1.00983
4848.89 1.13529 1.13817 7.52271 1.00994
4849.29 1.13618 1.13746 7.52302 1.01005
4849.68 1.1348 1.13611 7.53755 1.01017
4850.08 1.1327 1.13405 7.55015 1.01028
4850.48 1.13091 1.13137 7.55509 1.0104
4850.87 1.1291 1.12829 7.56003 1.01053
4851.27 1.12675 1.12507 7.57074 1.01065
4851.67 1.12346 1.12182 7.58186 1.01078
4852.07 1.11894 1.11849 7.604 1.01091
4852.46 1.11364 1.11489 7.63172 1.01104
4852.86 1.10851 1.11081 7.66019 1.01118
4853.26 1.10372 1.10614 7.68973 1.01132
4853.65 1.09849 1.10092 7.72329 1.01146
4854.05 1.09225 1.09535 7.78193 1.0116
4854.45 1.08523 1.0896 7.84124 1.01174
4854.85 1.07781 1.08369 7.9052 1.01189
4855.24 1.07038 1.0775 7.97055 1.01204
4855.64 1.0633 1.07078 8.02137 1.01219
4856.04 1.0562 1.06328 8.06249 1.01234
4856.43 1.04813 1.05492 8.11127 1.0125
4856.83 1.03884 1.04584 8.17503 1.01265
4857.23 1.02912 1.03639 8.23933 1.01281
4857.63 1.01979 1.02695 8.30159 1.01297
4858.02 1.01153 1.01782 8.36455 1.01314
4858.42 1.00492 1.00913 8.41819 1.0133
4858.82 1.00015 1.00086 8.46994 1.01347
4859.22 0.99716 0.992953 8.50463 1.01364
4859.61 0.994723 0.985477 8.52479 1.01381
4860.01 0.990572 0.97869 8.55757 1.01398
4860.41 0.983972 0.972945 8.62298 1.01415
4860.81 0.976992 0.968555 8.68863 1.01433
4861.2 0.971681 0.965659 8.72598 1.0145
4861.6 0.968905 0.964175 8.76357 1.01468
4862.0 0.969103 0.963862 8.77216 1.01486
4862.4 0.971439 0.964505 8.77127 1.01504
4862.8 0.974471 0.966032 8.76269 1.01522
4863.19 0.977704 0.96854 8.74623 1.0154
4863.59 0.981612 0.972232 8.72379 1.01559
4863.99 0.986429 0.977284 8.68144 1.01578
4864.39 0.991809 0.983683 8.63941 1.01596
4864.79 0.997371 0.991172 8.59186 1.01615
4865.18 1.0029 0.999291 8.54451 1.01634
4865.58 1.00824 1.00746 8.49791 1.01653
4865.98 1.01352 1.01512 8.45184 1.01672
4866.38 1.01901 1.02191 8.40144 1.01692
4866.78 1.0245 1.02769 8.34573 1.01711
4867.17 1.02924 1.0325 8.29445 1.01731
4867.57 1.03274 1.0365 8.26045 1.0175
4867.97 1.03515 1.0398 8.22665 1.0177
4868.37 1.03675 1.04238 8.20568 1.0179
4868.77 1.03801 1.04414 8.18577 1.01809
4869.17 1.03944 1.04502 8.1723 1.01829
4869.56 1.04157 1.04509 8.16202 1.01849
4869.96 1.0449 1.04459 8.14975 1.01869
4870.36 1.0489 1.04395 8.13459 1.01889
4870.76 1.0517 1.04359 8.12134 1.0191
4871.16 1.05206 1.04377 8.11871 1.0193
4871.56 1.05052 1.04457 8.11608 1.0195
4871.96 1.04801 1.0458 8.11979 1.0197
4872.35 1.04602 1.04721 8.12428 1.01991
4872.75 1.04613 1.04865 8.12754 1.02011
4873.15 1.04842 1.05016 8.1301 1.02032
4873.55 1.0519 1.05203 8.12161 1.02052
4873.95 1.05595 1.05469 8.0949 1.02073
4874.35 1.06052 1.05849 8.06647 1.02093
4874.75 1.06558 1.06352 8.02462 1.02114
4875.15 1.07119 1.06956 7.98309 1.02134
4875.54 1.07741 1.07611 7.93487 1.02155
4875.94 1.08429 1.08268 7.88597 1.02175
4876.34 1.09188 1.08893 7.8445 1.02196
4876.74 1.09927 1.09484 7.80784 1.02217
4877.14 1.10493 1.10053 7.77522 1.02237
4877.54 1.10855 1.10616 7.74974 1.02258
4877.94 1.11163 1.11173 7.72429 1.02278
4878.34 1.11554 1.11697 7.69804 1.02299
4878.74 1.12063 1.12147 7.67192 1.02319
4879.14 1.12683 1.12493 7.64347 1.0234
4879.53 1.13234 1.12727 7.61471 1.0236
4879.93 1.13484 1.12869 7.59941 1.02381
4880.33 1.13445 1.12955 7.59351 1.02401
4880.73 1.13317 1.13019 7.59357 1.02421
4881.13 1.13217 1.13071 7.60563 1.02442
4881.53 1.13114 1.13094 7.61858 1.02462
4881.93 1.12965 1.13053 7.64164 1.02482
4882.33 1.12726 1.12914 7.66481 1.02502
4882.73 1.12368 1.12666 7.69361 1.02523
4883.13 1.11961 1.12321 7.72374 1.02543
4883.53 1.11612 1.11916 7.73971 1.02563
4883.93 1.1136 1.11497 7.74501 1.02582
4884.33 1.11186 1.11099 7.75276 1.02602
4884.73 1.11052 1.10735 7.7657 1.02622
4885.13 1.10899 1.10394 7.77942 1.02642
4885.53 1.10666 1.10049 7.80338 1.02661
4885.93 1.10301 1.09673 7.82746 1.02681
4886.33 1.09764 1.09257 7.86611 1.027
4886.73 1.09089 1.08818 7.90834 1.02719
4887.13 1.08346 1.08388 7.95619 1.02738
4887.53 1.07616 1.08007 8.0086 1.02758
4887.93 1.06988 1.07706 8.05479 1.02776
4888.33 1.0654 1.07492 8.08663 1.02795
4888.73 1.06322 1.07361 8.11664 1.02814
4889.13 1.06369 1.07312 8.11747 1.02833
4889.53 1.06676 1.07354 8.1183 1.02851
4889.93 1.07211 1.07509 8.07427 1.02869
4890.33 1.07839 1.07804 8.02053 1.02888
4890.73 1.08388 1.08248 7.97932 1.02906
4891.13 1.08836 1.08826 7.94759 1.02924
4891.53 1.09287 1.09506 7.91211 1.02941
4891.93 1.09839 1.10251 7.86841 1.02959
4892.33 1.10572 1.11035 7.82325 1.02976
4892.73 1.11529 1.11858 7.75361 1.02994
4893.13 1.12645 1.12731 7.68488 1.03011
4893.53 1.13836 1.13668 7.61391 1.03028
4893.93 1.15038 1.1467 7.54323 1.03045
4894.33 1.16195 1.15712 7.47735 1.03061
4894.73 1.17264 1.16754 7.41516 1.03078
4895.13 1.18211 1.17753 7.35804 1.03094
4895.53 1.19016 1.18675 7.31045 1.0311
4895.93 1.19678 1.19497 7.26511 1.03126
4896.33 1.20204 1.20213 7.24134 1.03141
4896.73 1.20623 1.20815 7.21769 1.03157
4897.13 1.20965 1.21297 7.20065 1.03172
4897.53 1.21236 1.2165 7.18499 1.03187
4897.93 1.21437 1.21872 7.17412 1.03202
4898.33 1.21556 1.21968 7.16663 1.03217
4898.74 1.21574 1.21958 7.16279 1.03231
4899.14 1.21473 1.21867 7.16607 1.03245
4899.54 1.21242 1.21721 7.17129 1.03259
4899.94 1.20888 1.21537 7.19546 1.03273
4900.34 1.20473 1.21324 7.21976 1.03287
4900.74 1.20069 1.21087 7.23717 1.033
4901.14 1.19743 1.20833 7.25339 1.03314
4901.54 1.19557 1.20578 7.26411 1.03327
4901.94 1.19514 1.20339 7.27122 1.0334
4902.34 1.19569 1.20136 7.2758 1.03352
4902.75 1.19635 1.19981 7.27587 1.03365
4903.15 1.19555 1.19877 7.27881 1.03377
4903.55 1.19257 1.19817 7.30364 1.03389
4903.95 1.18919 1.19784 7.32858 1.03401
4904.35 1.18733 1.19758 7.33188 1.03413
4904.75 1.18724 1.19718 7.33201 1.03425
4905.15 1.1885 1.19648 7.32741 1.03436
4905.55 1.19035 1.19539 7.32004 1.03447
4905.96 1.19173 1.19391 7.31496 1.03458
4906.36 1.19178 1.19216 7.31346 1.03469
4906.76 1.18982 1.19028 7.31604 1.0348
4907.16 1.18571 1.18835 7.3427 1.03491
4907.56 1.18065 1.18642 7.3695 1.03501
4907.96 1.17593 1.18446 7.39088 1.03512
4908.36 1.17225 1.1824 7.41177 1.03522
4908.77 1.17009 1.18024 7.42562 1.03532
4909.17 1.16943 1.17809 7.43589 1.03542
4909.57 1.16995 1.17607 7.43757 1.03552
4909.97 1.17103 1.17431 7.42749 1.03561
4910.37 1.17173 1.17288 7.42064 1.03571
4910.77 1.17146 1.17174 7.42829 1.0358
4911.18 1.17052 1.17078 7.43595 1.0359
4911.58 1.1693 1.16995 7.44702 1.03599
4911.98 1.16805 1.16922 7.45832 1.03608
4912.38 1.16692 1.16864 7.46984 1.03617
4912.78 1.16576 1.16825 7.48148 1.03625
4913.19 1.16427 1.168 7.49316 1.03634
4913.59 1.16252 1.16773 7.50488 1.03642
4913.99 1.16106 1.16716 7.51646 1.03651
4914.39 1.1601 1.16595 7.52752 1.03659
4914.79 1.15918 1.16381 7.5386 1.03667
4915.2 1.15773 1.16054 7.55287 1.03675
4915.6 1.15528 1.15608 7.56722 1.03683
4916.0 1.15143 1.15055 7.58661 1.03691
4916.4 1.14639 1.14411 7.60778 1.03699
4916.81 1.14068 1.13705 7.63641 1.03707
4917.21 1.13453 1.12963 7.67235 1.03714
4917.61 1.12795 1.12203 7.71014 1.03722
4918.01 1.12102 1.11442 7.75252 1.03729
4918.41 1.11393 1.10691 7.79533 1.03737
4918.82 1.10692 1.0996 7.84052 1.03744
4919.22 1.10024 1.09268 7.8861 1.03751
4919.62 1.09414 1.08638 7.92715 1.03758
4920.02 1.08873 1.08096 7.96727 1.03765
4920.43 1.08404 1.07668 8.00149 1.03772
4920.83 1.08016 1.07369 8.03111 1.03779
4921.23 1.07725 1.07208 8.05535 1.03786
4921.63 1.0755 1.07184 8.06833 1.03792
4922.04 1.07518 1.07295 8.07936 1.03799
4922.44 1.07658 1.07545 8.07113 1.03805
4922.84 1.08003 1.07945 8.0629 1.03812
4923.25 1.08576 1.08505 8.0177 1.03818
4923.65 1.09342 1.09229 7.96687 1.03825
4924.05 1.10245 1.10098 7.90763 1.03831
4924.45 1.11251 1.1107 7.84376 1.03838
4924.86 1.12341 1.1209 7.77671 1.03844
4925.26 1.13492 1.13101 7.70444 1.0385
4925.66 1.14674 1.14068 7.63181 1.03856
4926.07 1.15838 1.14982 7.553 1.03862
4926.47 1.16898 1.15858 7.47539 1.03868
4926.87 1.17781 1.16713 7.42756 1.03875
4927.28 1.1852 1.17552 7.3825 1.03881
4927.68 1.19181 1.18358 7.34592 1.03887
4928.08 1.19788 1.19099 7.31318 1.03893
4928.49 1.20346 1.1974 7.28555 1.03899
4928.89 1.2084 1.20263 7.26382 1.03904
4929.29 1.21236 1.20671 7.24514 1.0391
4929.7 1.21511 1.2098 7.23655 1.03916
4930.1 1.2167 1.21203 7.22797 1.03922
4930.5 1.21719 1.21341 7.23168 1.03928
4930.91 1.21653 1.2138 7.23543 1.03934
4931.31 1.21465 1.21306 7.24861 1.0394
4931.71 1.21166 1.21117 7.26473 1.03946
4932.12 1.20778 1.20829 7.28665 1.03951
4932.52 1.20335 1.20468 7.3137 1.03957
4932.92 1.19883 1.20061 7.33384 1.03963
4933.33 1.19465 1.19616 7.33786 1.03969
4933.73 1.19125 1.19128 7.34262 1.03975
4934.13 1.18875 1.18585 7.35641 1.03981
4934.54 1.1863 1.17986 7.37025 1.03986
4934.94 1.18291 1.17349 7.39731 1.03992
4935.35 1.17791 1.16712 7.42695 1.03998
4935.75 1.17082 1.16116 7.47271 1.04004
4936.15 1.1629 1.15598 7.52895 1.0401
4936.56 1.15659 1.15178 7.57053 1.04016
4936.96 1.15283 1.14859 7.58819 1.04022
4937.36 1.15043 1.1464 7.60441 1.04028
4937.77 1.14848 1.14519 7.61272 1.04034
4938.17 1.14698 1.14497 7.62106 1.0404
4938.58 1.14622 1.14571 7.62182 1.04046
4938.98 1.14715 1.14739 7.62204 1.04053
4939.38 1.15068 1.14984 7.61114 1.04059
4939.79 1.15533 1.15292 7.59563 1.04065
4940.19 1.15829 1.15653 7.58049 1.04071
4940.6 1.15934 1.16065 7.56577 1.04078
4941.0 1.16099 1.16541 7.54551 1.04084
4941.41 1.16529 1.17093 7.50884 1.0409
4941.81 1.17316 1.17723 7.4716 1.04097
4942.21 1.18451 1.18418 7.40257 1.04104
4942.62 1.19588 1.19148 7.33448 1.0411
4943.02 1.20367 1.19878 7.29847 1.04117
4943.43 1.20861 1.20578 7.27052 1.04124
4943.83 1.21331 1.21231 7.24561 1.0413
4944.24 1.21894 1.21832 7.22298 1.04137
4944.64 1.22542 1.22381 7.19964 1.04144
4945.05 1.23229 1.2288 7.17493 1.04151
4945.45 1.23856 1.23324 7.14837 1.04158
4945.85 1.2436 1.23709 7.10822 1.04166
4946.26 1.24776 1.24038 7.0684 1.04173
4946.66 1.25152 1.2432 7.04698 1.0418
4947.07 1.25484 1.24568 7.02764 1.04188
4947.47 1.25753 1.24792 7.01374 1.04195
4947.88 1.25949 1.24996 7.00244 1.04203
4948.28 1.26072 1.25173 6.99429 1.04211
4948.69 1.26127 1.2531 6.98993 1.04218
4949.09 1.26126 1.25397 6.98943 1.04226
4949.5 1.26105 1.25427 7.00181 1.04234
4949.9 1.26149 1.25398 7.01408 1.04242
4950.31 1.26307 1.25313 7.00865 1.04251
4950.71 1.26483 1.25172 7.00322 1.04259
4951.12 1.26542 1.24971 7.0042 1.04267
4951.52 1.26374 1.24698 7.00693 1.04276
4951.93 1.25884 1.24333 7.02768 1.04285
4952.33 1.25114 1.23861 7.06254 1.04293
4952.74 1.24212 1.23274 7.1013 1.04302
4953.14 1.23291 1.22581 7.14741 1.04311
4953.55 1.22391 1.21802 7.19454 1.0432
4953.95 1.21535 1.20967 7.24625 1.04329
4954.36 1.20703 1.20101 7.29852 1.04338
4954.77 1.19866 1.19228 7.35264 1.04348
4955.17 1.18979 1.18369 7.4075 1.04357
4955.58 1.18002 1.17549 7.45661 1.04366
4955.98 1.17026 1.168 7.5032 1.04376
4956.39 1.16219 1.16156 7.54362 1.04386
4956.79 1.15651 1.15638 7.57662 1.04395
4957.2 1.15284 1.1525 7.60534 1.04405
4957.6 1.15071 1.14977 7.62016 1.04415
4958.01 1.1496 1.14798 7.63449 1.04425
4958.42 1.14907 1.14695 7.62717 1.04435
4958.82 1.14908 1.14665 7.61986 1.04445
4959.23 1.14968 1.14718 7.60813 1.04455
4959.63 1.15106 1.14867 7.59536 1.04465
4960.04 1.15347 1.15117 7.57792 1.04476
4960.44 1.15694 1.15462 7.55724 1.04486
4960.85 1.16129 1.15879 7.53476 1.04497
4961.26 1.16624 1.16337 7.50919 1.04507
4961.66 1.17133 1.16803 7.48361 1.04518
4962.07 1.176 1.17245 7.45741 1.04528
4962.47 1.1795 1.17632 7.43134 1.04539
4962.88 1.18119 1.17945 7.43287 1.0455
4963.29 1.18128 1.18172 7.4363 1.04561
4963.69 1.18019 1.1831 7.44669 1.04572
4964.1 1.17827 1.18369 7.45983 1.04583
4964.5 1.17587 1.18363 7.47554 1.04594
4964.91 1.17309 1.18305 7.49381 1.04605
4965.32 1.16992 1.18203 7.51156 1.04616
4965.72 1.16649 1.18067 7.52794 1.04627
4966.13 1.16333 1.17909 7.54397 1.04638
4966.54 1.16088 1.17747 7.55485 1.0465
4966.94 1.15929 1.17606 7.56575 1.04661
4967.35 1.15861 1.17507 7.5713 1.04673
4967.75 1.1588 1.17462 7.57595 1.04684
4968.16 1.15976 1.17475 7.57492 1.04696
4968.57 1.16143 1.17541 7.57072 1.04707
4968.97 1.16378 1.17653 7.55945 1.04719
4969.38 1.16668 1.17807 7.53882 1.0473
4969.79 1.16992 1.18 7.51826 1.04742
4970.19 1.17329 1.18233 7.49774 1.04754
4970.6 1.17674 1.18504 7.47731 1.04766
4971.01 1.18025 1.18809 7.45756 1.04777
4971.41 1.18386 1.19137 7.43788 1.04789
4971.82 1.18765 1.19474 7.41247 1.04801
4972.23 1.19157 1.19804 7.38566 1.04813
4972.63 1.19549 1.20103 7.36256 1.04825
4973.04 1.19909 1.20353 7.34217 1.04837
4973.45 1.20186 1.20542 7.32558 1.04849
4973.86 1.20343 1.20665 7.3155 1.04861
4974.26 1.20359 1.20724 7.30778 1.04873
4974.67 1.20238 1.20728 7.31304 1.04885
4975.08 1.2005 1.20678 7.31832 1.04897
4975.48 1.19854 1.20565 7.33716 1.0491
4975.89 1.19624 1.20374 7.35692 1.04922
4976.3 1.19312 1.20082 7.38238 1.04934
4976.7 1.18892 1.19673 7.41005 1.04946
4977.11 1.18353 1.19147 7.44237 1.04959
4977.52 1.177 1.18518 7.47908 1.04971
4977.93 1.16954 1.17811 7.521 1.04983
4978.33 1.1613 1.17056 7.57433 1.04995
4978.74 1.15236 1.1627 7.62882 1.05008
4979.15 1.14288 1.15461 7.68909 1.0502
4979.56 1.13337 1.1463 7.75008 1.05032
4979.96 1.12438 1.13779 7.80476 1.05045
4980.37 1.11619 1.12924 7.85917 1.05057
4980.78 1.10896 1.12094 7.90315 1.0507
4981.19 1.10236 1.11326 7.94238 1.05082
4981.59 1.09584 1.10657 7.99142 1.05094
4982.0 1.08915 1.1011 8.05156 1.05107
4982.41 1.08242 1.09689 8.10443 1.05119
4982.82 1.07614 1.09384 8.13577 1.05132
4983.22 1.07149 1.09181 8.16544 1.05144
4983.63 1.06968 1.09072 8.16565 1.05156
4984.04 1.07182 1.09061 8.16585 1.05169
4984.45 1.07842 1.0916 8.13026 1.05181
4984.86 1.08634 1.09375 8.08873 1.05194
4985.26 1.09135 1.09703 8.0569 1.05206
4985.67 1.09348 1.10123 8.0304 1.05218
4986.08 1.09569 1.10608 7.99664 1.05231
4986.49 1.10014 1.11131 7.95371 1.05243
4986.89 1.10805 1.11679 7.90455 1.05256
4987.3 1.11903 1.12246 7.83445 1.05268
4987.71 1.12962 1.12826 7.76628 1.0528
4988.12 1.13707 1.13408 7.73485 1.05293
4988.53 1.14265 1.13972 7.70361 1.05305
4988.94 1.1483 1.145 7.66703 1.05317
4989.34 1.15417 1.14977 7.62952 1.0533
4989.75 1.15958 1.15403 7.59629 1.05342
4990.16 1.16356 1.15783 7.56575 1.05354
4990.57 1.16491 1.16119 7.55035 1.05366
4990.98 1.16412 1.16408 7.55631 1.05379
4991.39 1.16372 1.16642 7.55947 1.05391
4991.79 1.16522 1.16817 7.552 1.05403
4992.2 1.1676 1.1694 7.54455 1.05415
4992.61 1.16963 1.1703 7.53973 1.05427
4993.02 1.17057 1.17105 7.53491 1.05439
4993.43 1.16993 1.17173 7.53594 1.05451
4993.84 1.16835 1.17222 7.53842 1.05463
4994.24 1.16687 1.17234 7.54372 1.05475
4994.65 1.16582 1.17192 7.55091 1.05487
4995.06 1.16497 1.17094 7.55592 1.05499
4995.47 1.16426 1.16954 7.55759 1.05511
4995.88 1.1639 1.16792 7.55879 1.05523
4996.29 1.16405 1.16617 7.55811 1.05535
4996.7 1.16469 1.16421 7.55743 1.05547
4997.11 1.16549 1.16182 7.55931 1.05559
4997.51 1.16483 1.15882 7.5612 1.0557
4997.92 1.16103 1.15515 7.59291 1.05582
4998.33 1.15451 1.15097 7.63276 1.05594
4998.74 1.14662 1.14657 7.67522 1.05605
4999.15 1.13857 1.14218 7.71963 1.05617
4999.56 1.13141 1.13787 7.76239 1.05628
4999.97 1.12578 1.13354 7.80226 1.0564
5000.38 1.12179 1.12898 7.83815 1.05651
5000.79 1.11909 1.12403 7.85586 1.05662
5001.2 1.11632 1.11871 7.87363 1.05674
5001.61 1.11235 1.11321 7.90412 1.05685
5002.01 1.10759 1.1078 7.93492 1.05696
5002.42 1.10286 1.10275 7.96324 1.05707
5002.83 1.09925 1.0982 7.99101 1.05718
5003.24 1.09791 1.09418 8.00006 1.05729
5003.65 1.09847 1.09068 7.99613 1.0574
5004.06 1.09949 1.08768 7.99378 1.05751
5004.47 1.1001 1.08524 7.99386 1.05762
5004.88 1.10027 1.08345 7.99414 1.05773
5005.29 1.10011 1.08238 7.99523 1.05783
5005.7 1.09984 1.08199 7.99632 1.05794
5006.11 1.0997 1.08215 7.99725 1.05805
5006.52 1.1 1.08261 7.99818 1.05815
5006.93 1.10102 1.08315 7.99062 1.05826
5007.34 1.10259 1.08363 7.98096 1.05836
5007.75 1.10437 1.08402 7.97012 1.05847
5008.16 1.10605 1.08438 7.95852 1.05857
5008.57 1.10739 1.0847 7.94836 1.05868
5008.98 1.10818 1.08493 7.94027 1.05878
5009.39 1.10824 1.08498 7.9351 1.05888
5009.8 1.10737 1.08472 7.94086 1.05898
5010.21 1.10529 1.08409 7.94692 1.05909
5010.62 1.10189 1.08312 7.97265 1.05919
5011.03 1.09772 1.08187 7.9985 1.05929
5011.44 1.09348 1.08039 8.02655 1.05939
5011.85 1.08953 1.0787 8.05521 1.05949
5012.26 1.08613 1.07678 8.08295 1.05959
5012.67 1.08309 1.07461 8.11018 1.05969
5013.08 1.07996 1.07225 8.13482 1.05979
5013.49 1.07647 1.06982 8.15594 1.05989
5013.9 1.0726 1.06749 8.17782 1.05999
5014.31 1.06852 1.06541 8.20195 1.06009
5014.72 1.06471 1.06369 8.22593 1.06019
5015.13 1.06172 1.06237 8.24407 1.06028
5015.54 1.06005 1.06152 8.26227 1.06038
5015.95 1.06002 1.06121 8.25905 1.06048
5016.36 1.06104 1.06153 8.25203 1.06058
5016.77 1.06219 1.06257 8.24701 1.06067
5017.18 1.06317 1.06431 8.24304 1.06077
5017.59 1.06409 1.06665 8.23611 1.06087
5018.0 1.0651 1.06938 8.22577 1.06096
5018.41 1.06643 1.07231 8.21288 1.06106
5018.82 1.0683 1.07529 8.19318 1.06115
5019.23 1.07087 1.07822 8.17295 1.06125
5019.64 1.07426 1.0811 8.1459 1.06134
5020.05 1.07842 1.08396 8.11898 1.06144
5020.46 1.08323 1.08689 8.0929 1.06153
5020.88 1.0882 1.08996 8.06703 1.06163
5021.29 1.09275 1.0932 8.04429 1.06172
5021.7 1.09636 1.09654 8.02295 1.06182
5022.11 1.09857 1.09981 8.00861 1.06191
5022.52 1.09954 1.10283 8.00104 1.062
5022.93 1.10007 1.1055 7.99086 1.0621
5023.34 1.10096 1.10787 7.97505 1.06219
5023.75 1.10291 1.11011 7.95861 1.06228
5024.16 1.10636 1.11241 7.93757 1.06238
5024.57 1.1111 1.1149 7.91661 1.06247
5024.99 1.11655 1.11759 7.89119 1.06256
5025.4 1.12105 1.1204 7.86558 1.06266
5025.81 1.12291 1.1233 7.86323 1.06275
5026.22 1.12274 1.1263 7.86871 1.06284
5026.63 1.12232 1.12946 7.86055 1.06293
5027.04 1.12302 1.13287 7.84171 1.06303
5027.45 1.12576 1.13654 7.81477 1.06312
5027.86 1.13109 1.14036 7.77424 1.06321
5028.28 1.13901 1.14422 7.72969 1.0633
5028.69 1.14879 1.14801 7.66639 1.06339
5029.1 1.15796 1.1517 7.60386 1.06349
5029.51 1.16443 1.15528 7.58154 1.06358
5029.92 1.16837 1.15882 7.5595 1.06367
5030.33 1.17055 1.16234 7.54793 1.06376
5030.74 1.1718 1.1658 7.53885 1.06386
5031.16 1.17291 1.1691 7.5318 1.06395
5031.57 1.17397 1.17209 7.52597 1.06404
5031.98 1.17457 1.17458 7.5255 1.06413
5032.39 1.17465 1.17633 7.53196 1.06422
5032.8 1.17449 1.17716 7.53528 1.06432
5033.21 1.17443 1.17689 7.52915 1.06441
5033.63 1.17477 1.1755 7.52232 1.0645
5034.04 1.17577 1.17308 7.50528 1.06459
5034.45 1.17752 1.16982 7.48829 1.06469
5034.86 1.17973 1.16588 7.46732 1.06478
5035.27 1.18026 1.16129 7.44589 1.06487
5035.69 1.1765 1.15591 7.47442 1.06496
5036.1 1.16799 1.14955 7.52536 1.06506
5036.51 1.15562 1.14212 7.59266 1.06515
5036.92 1.14073 1.13378 7.67633 1.06524
5037.33 1.12512 1.12498 7.76529 1.06534
5037.75 1.11057 1.11627 7.86401 1.06543
5038.16 1.09883 1.10817 7.95625 1.06552
5038.57 1.09088 1.101 7.99905 1.06562
5038.98 1.08581 1.09489 8.0422 1.06571
5039.4 1.08253 1.08988 8.06634 1.0658
5039.81 1.08045 1.08609 8.08977 1.0659
5040.22 1.07925 1.08366 8.09951 1.06599
5040.63 1.07913 1.08276 8.10529 1.06609
5041.04 1.08055 1.0835 8.09515 1.06618
5041.46 1.08358 1.08574 8.07417 1.06628
5041.87 1.08797 1.0892 8.04771 1.06637
5042.28 1.09341 1.09355 8.01347 1.06647
5042.7 1.09954 1.09856 7.97837 1.06656
5043.11 1.10603 1.10411 7.93995 1.06666
5043.52 1.11256 1.11023 7.90194 1.06675
5043.93 1.11889 1.11696 7.86676 1.06685
5044.35 1.12504 1.12417 7.83181 1.06695
5044.76 1.13107 1.13156 7.79445 1.06704
5045.17 1.13712 1.13875 7.75696 1.06714
5045.58 1.1433 1.14531 7.71875 1.06724
5046.0 1.14945 1.15092 7.68036 1.06734
5046.41 1.15524 1.15542 7.64265 1.06743
5046.82 1.16003 1.15876 7.60558 1.06753
5047.24 1.16292 1.16103 7.57965 1.06763
5047.65 1.16389 1.16235 7.57604 1.06773
5048.06 1.16431 1.16287 7.57298 1.06783
5048.47 1.1651 1.16273 7.57311 1.06793
5048.89 1.1658 1.16206 7.57324 1.06803
5049.3 1.16565 1.16099 7.58183 1.06813
5049.71 1.16379 1.1597 7.59071 1.06823
5050.13 1.15967 1.15834 7.6173 1.06833
5050.54 1.15546 1.15714 7.64875 1.06843
5050.95 1.1544 1.15629 7.65485 1.06853
5051.37 1.15666 1.15596 7.64491 1.06864
5051.78 1.1602 1.15632 7.63237 1.06874
5052.19 1.16338 1.15745 7.6165 1.06884
5052.61 1.16509 1.15937 7.6019 1.06895
5053.02 1.16521 1.16205 7.59085 1.06905
5053.43 1.16539 1.16541 7.5795 1.06915
5053.85 1.16708 1.16938 7.5645 1.06926
5054.26 1.17048 1.17386 7.54955 1.06936
5054.67 1.1755 1.1788 7.52041 1.06947
5055.09 1.18165 1.1841 7.48995 1.06957
5055.5 1.18833 1.18961 7.45494 1.06968
5055.91 1.19476 1.19513 7.41843 1.06979
5056.33 1.20013 1.20044 7.39568 1.0699
5056.74 1.20447 1.20537 7.38392 1.07
5057.16 1.2085 1.20989 7.36415 1.07011
5057.57 1.2127 1.21406 7.33127 1.07022
5057.98 1.21715 1.21797 7.29829 1.07033
5058.4 1.2218 1.22162 7.26429 1.07044
5058.81 1.22637 1.22486 7.23083 1.07055
5059.23 1.23047 1.22737 7.20799 1.07066
5059.64 1.23345 1.22883 7.18527 1.07077
5060.05 1.23463 1.22906 7.1939 1.07088
5060.47 1.23375 1.22808 7.20794 1.07098
5060.88 1.23071 1.22612 7.22626 1.07109
5061.3 1.22604 1.22348 7.24667 1.0712
5061.71 1.22064 1.22036 7.26796 1.07131
5062.12 1.21581 1.21681 7.29012 1.07142
5062.54 1.21315 1.21274 7.30751 1.07153
5062.95 1.21265 1.20808 7.31518 1.07164
5063.37 1.21169 1.20288 7.3262 1.07175
5063.78 1.20829 1.19733 7.35479 1.07186
5064.2 1.2025 1.19169 7.38355 1.07197
5064.61 1.19483 1.18621 7.42525 1.07208
5065.02 1.18641 1.18102 7.46746 1.07219
5065.44 1.17836 1.17612 7.51624 1.0723
5065.85 1.17093 1.17144 7.56691 1.07241
5066.27 1.16395 1.16694 7.61422 1.07252
5066.68 1.15762 1.16269 7.6598 1.07263
5067.1 1.15236 1.15882 7.69801 1.07273
5067.51 1.14849 1.15555 7.72779 1.07284
5067.93 1.14616 1.15305 7.7513 1.07295
5068.34 1.14542 1.15142 7.76002 1.07305
5068.75 1.14615 1.15059 7.76608 1.07316
5069.17 1.14801 1.15035 7.75453 1.07327
5069.58 1.15026 1.15044 7.743 1.07337
5070.0 1.15218 1.15063 7.73714 1.07348
5070.41 1.15354 1.15082 7.7315 1.07358
5070.83 1.1543 1.15104 7.72946 1.07368
5071.24 1.1547 1.15139 7.72835 1.07379
5071.66 1.15506 1.15195 7.72842 1.07389
5072.07 1.15507 1.1527 7.72921 1.07399
5072.49 1.15401 1.15348 7.73404 1.07409
5072.9 1.15193 1.15405 7.74373 1.07419
5073.32 1.14981 1.15417 7.75223 1.07429
5073.73 1.14849 1.1537 7.75773 1.07439
5074.15 1.14851 1.15262 7.7615 1.07449
5074.56 1.1498 1.15102 7.75229 1.07458
5074.98 1.15078 1.14906 7.7431 1.07468
5075.39 1.14991 1.14683 7.75204 1.07477
5075.81 1.14738 1.14429 7.76195 1.07487
5076.23 1.14381 1.14133 7.77928 1.07496
5076.64 1.13963 1.13779 7.79872 1.07505
5077.06 1.13515 1.13357 7.82325 1.07514
5077.47 1.13043 1.12881 7.85103 1.07523
5077.89 1.12538 1.12379 7.88021 1.07532
5078.3 1.12018 1.11891 7.91109 1.07541
5078.72 1.11541 1.11451 7.94029 1.0755
5079.13 1.11137 1.11073 7.96488 1.07558
5079.55 1.10792 1.10751 7.9895 1.07567
5079.96 1.10483 1.10463 8.01354 1.07575
5080.38 1.10181 1.10197 8.03768 1.07583
5080.8 1.09861 1.09957 8.07108 1.07591
5081.21 1.09545 1.09769 8.10516 1.07599
5081.63 1.0927 1.09667 8.12485 1.07607
5082.04 1.09093 1.09682 8.14066 1.07615
5082.46 1.09081 1.09825 8.14053 1.07622
5082.87 1.09262 1.10084 8.13071 1.0763
5083.29 1.09639 1.10434 8.10551 1.07637
5083.71 1.10155 1.10846 8.06237 1.07644
5084.12 1.10687 1.11299 8.02773 1.07651
5084.54 1.11167 1.11783 8.01279 1.07658
5084.95 1.11624 1.12297 7.99543 1.07664
5085.37 1.12093 1.12841 7.96184 1.07671
5085.79 1.12596 1.13413 7.92846 1.07677
5086.2 1.13154 1.14002 7.87885 1.07683
5086.62 1.13774 1.14591 7.82916 1.07689
5087.04 1.14455 1.15164 7.77677 1.07695
5087.45 1.15146 1.1571 7.72414 1.07701
5087.87 1.15781 1.16226 7.67768 1.07706
5088.28 1.16348 1.16716 7.63474 1.07712
5088.7 1.16873 1.17185 7.59546 1.07717
5089.12 1.17385 1.17638 7.56002 1.07722
5089.53 1.17909 1.1807 7.52745 1.07726
5089.95 1.18425 1.18472 7.50063 1.07731
5090.37 1.18831 1.18832 7.47791 1.07735
5090.78 1.19061 1.19135 7.47633 1.07739
5091.2 1.19148 1.1937 7.47475 1.07743
5091.62 1.19138 1.19529 7.48515 1.07747
5092.03 1.1907 1.1961 7.4956 1.07751
5092.45 1.18979 1.19616 7.51468 1.07754
5092.87 1.18872 1.19555 7.53552 1.07757
5093.28 1.18749 1.1943 7.54898 1.0776
5093.7 1.18592 1.19242 7.55892 1.07763
5094.12 1.18378 1.18989 7.57356 1.07765
5094.53 1.18093 1.18669 7.59265 1.07768
5094.95 1.17727 1.18283 7.61412 1.0777
5095.37 1.17281 1.1784 7.63988 1.07772
5095.78 1.16764 1.17352 7.66549 1.07773
5096.2 1.16191 1.16834 7.69013 1.07775
5096.62 1.15587 1.16309 7.7146 1.07776
5097.03 1.14981 1.15795 7.73251 1.07777
5097.45 1.14421 1.15314 7.75047 1.07777
5097.87 1.13956 1.14881 7.75969 1.07778
5098.29 1.13614 1.14506 7.76775 1.07778
5098.7 1.13408 1.14191 7.76338 1.07778
5099.12 1.13263 1.13929 7.75431 1.07777
5099.54 1.13059 1.13714 7.75895 1.07777
5099.95 1.12843 1.13542 7.77407 1.07776
5100.37 1.12795 1.13412 7.78077 1.07775
5100.79 1.13006 1.13328 7.77534 1.07774
5101.21 1.13453 1.1329 7.7627 1.07772
5101.62 1.14003 1.13294 7.72896 1.0777
5102.04 1.14332 1.1333 7.70166 1.07768
5102.46 1.14227 1.13386 7.73196 1.07765
5102.88 1.13874 1.13449 7.76244 1.07763
5103.29 1.13499 1.13511 7.78476 1.0776
5103.71 1.13181 1.13562 7.80666 1.07756
5104.13 1.12943 1.13589 7.82615 1.07753
5104.55 1.12742 1.13579 7.84502 1.07749
5104.96 1.12506 1.13522 7.87341 1.07745
5105.38 1.12232 1.13417 7.90751 1.0774
5105.8 1.11963 1.13279 7.93888 1.07736
5106.22 1.11743 1.1313 7.96718 1.07731
5106.63 1.11613 1.1299 7.99143 1.07725
5107.05 1.11602 1.12868 8.00692 1.0772
5107.47 1.11716 1.12762 8.01835 1.07714
5107.89 1.11922 1.12666 8.00956 1.07707
5108.31 1.12097 1.12584 8.00093 1.07701
5108.72 1.12144 1.12533 8.00141 1.07694
5109.14 1.12128 1.12541 8.00189 1.07687
5109.56 1.12149 1.12628 7.99333 1.07679
5109.98 1.12267 1.12796 7.98333 1.07671
5110.4 1.12524 1.13029 7.96314 1.07663
5110.81 1.12903 1.13299 7.93887 1.07655
5111.23 1.13356 1.13586 7.91116 1.07646
5111.65 1.13852 1.13892 7.8808 1.07637
5112.07 1.14379 1.14233 7.84938 1.07628
5112.49 1.14922 1.14631 7.81635 1.07619
5112.91 1.15463 1.15096 7.78381 1.07609
5113.32 1.15985 1.15614 7.75231 1.07599
5113.74 1.16474 1.16155 7.72266 1.07589
5114.16 1.16927 1.16683 7.70783 1.07579
5114.58 1.17367 1.17174 7.69304 1.07568
5115.0 1.17817 1.17617 7.66723 1.07557
5115.42 1.18268 1.18011 7.64097 1.07546
5115.83 1.18698 1.18358 7.6161 1.07535
5116.25 1.1908 1.18654 7.59167 1.07524
5116.67 1.19381 1.1889 7.57606 1.07512
5117.09 1.19559 1.1905 7.56519 1.07501
5117.51 1.1957 1.19121 7.56518 1.07489
5117.93 1.19419 1.19092 7.57602 1.07477
5118.35 1.19159 1.18958 7.58973 1.07464
5118.77 1.18833 1.18723 7.60878 1.07452
5119.18 1.18469 1.18393 7.62916 1.0744
5119.6 1.18072 1.17982 7.65466 1.07427
5120.02 1.17609 1.175 7.68048 1.07414
5120.44 1.17058 1.16955 7.70966 1.07402
5120.86 1.16458 1.16353 7.739 1.07389
5121.28 1.15848 1.15694 7.7773 1.07376
5121.7 1.15205 1.1499 7.81682 1.07363
5122.12 1.14485 1.14255 7.86341 1.07349
5122.54 1.1362 1.13516 7.91262 1.07336
5122.96 1.12551 1.128 7.96836 1.07323
5123.37 1.11455 1.12125 8.02861 1.07309
5123.79 1.10682 1.11498 8.07239 1.07296
5124.21 1.10335 1.10916 8.09647 1.07283
5124.63 1.10241 1.10373 8.11915 1.07269
5125.05 1.10198 1.09868 8.13863 1.07256
5125.47 1.09976 1.09414 8.16301 1.07242
5125.89 1.09463 1.09031 8.21137 1.07228
5126.31 1.08825 1.0874 8.2599 1.07215
5126.73 1.08244 1.08555 8.29796 1.07201
5127.15 1.07784 1.08474 8.33629 1.07188
5127.57 1.07483 1.08481 8.35572 1.07174
5127.99 1.07366 1.08563 8.37253 1.07161
5128.41 1.07451 1.08707 8.36825 1.07147
5128.83 1.07743 1.08907 8.35626 1.07134
5129.25 1.08236 1.09164 8.32796 1.0712
5129.67 1.08881 1.09473 8.28843 1.07107
5130.09 1.09594 1.09821 8.24801 1.07093
5130.51 1.10306 1.10188 8.20642 1.0708
5130.93 1.10967 1.10555 8.16525 1.07067
5131.35 1.11537 1.10907 8.12461 1.07054
5131.77 1.12 1.11244 8.08685 1.07041
5132.19 1.12363 1.11576 8.0633 1.07028
5132.6 1.12695 1.11909 8.03988 1.07015
5133.02 1.13048 1.12236 8.02006 1.07003
5133.44 1.13391 1.12531 8.0003 1.0699
5133.86 1.1367 1.12757 7.98782 1.06978
5134.28 1.13822 1.12886 7.97646 1.06965
5134.71 1.13799 1.12916 7.98098 1.06953
5135.13 1.13677 1.12866 7.99149 1.06941
5135.55 1.13599 1.12771 7.99039 1.06929
5135.97 1.1361 1.12654 7.98101 1.06918
5136.39 1.13683 1.12517 7.97062 1.06906
5136.81 1.13774 1.12342 7.95895 1.06895
5137.23 1.13824 1.12113 7.94883 1.06884
5137.65 1.13773 1.11828 7.94228 1.06873
5138.07 1.13553 1.11511 7.94118 1.06862
5138.49 1.13141 1.11195 7.96889 1.06851
5138.91 1.12627 1.10902 7.9967 1.06841
5139.33 1.12112 1.1063 8.02194 1.06831
5139.75 1.1167 1.10359 8.0473 1.06821
5140.17 1.11364 1.10067 8.06707 1.06811
5140.59 1.11226 1.09755 8.08611 1.06802
5141.01 1.11259 1.09449 8.10144 1.06793
5141.43 1.11338 1.09188 8.11547 1.06784
5141.85 1.11277 1.09003 8.13791 1.06775
5142.27 1.11023 1.08894 8.16608 1.06767
5142.69 1.10629 1.08835 8.19662 1.06759
5143.11 1.10198 1.08786 8.22998 1.06751
5143.53 1.09885 1.08719 8.25662 1.06744
5143.96 1.09768 1.0863 8.26868 1.06736
5144.38 1.09791 1.08535 8.27904 1.0673
5144.8 1.0988 1.08455 8.28165 1.06723
5145.22 1.09932 1.08403 8.28446 1.06717
5145.64 1.09854 1.08375 8.29184 1.06711
5146.06 1.09595 1.0836 8.29923 1.06705
5146.48 1.09147 1.08345 8.32511 1.067
5146.9 1.08701 1.08323 8.35304 1.06695
5147.32 1.08479 1.08295 8.36566 1.06691
5147.75 1.08466 1.08263 8.37366 1.06687
5148.17 1.0853 1.08228 8.37779 1.06683
5148.59 1.08576 1.08188 8.37966 1.0668
5149.01 1.08535 1.08145 8.37966 1.06677
5149.43 1.08419 1.08103 8.37776 1.06674
5149.85 1.0832 1.08073 8.37954 1.06672
5150.27 1.08281 1.08068 8.38787 1.0667
5150.69 1.08258 1.08097 8.3952 1.06669
5151.12 1.08228 1.08165 8.39905 1.06668
5151.54 1.08213 1.08273 8.40229 1.06668
5151.96 1.08251 1.08421 8.39909 1.06668
5152.38 1.08416 1.08609 8.39589 1.06668
5152.8 1.08761 1.0884 8.36572 1.06669
5153.22 1.09212 1.09111 8.33437 1.06671
5153.64 1.09674 1.09416 8.28817 1.06673
5154.07 1.10141 1.09744 8.23904 1.06675
5154.49 1.10652 1.10086 8.18385 1.06678
5154.91 1.11255 1.10443 8.12623 1.06681
5155.33 1.12004 1.10824 8.06986 1.06685
5155.75 1.12852 1.11245 8.01458 1.0669
5156.18 1.13669 1.11705 7.96848 1.06694
5156.6 1.14363 1.12189 7.9348 1.067
5157.02 1.14902 1.12667 7.90618 1.06706
5157.44 1.1527 1.13101 7.88996 1.06712
5157.86 1.1548 1.13464 7.87719 1.06719
5158.29 1.15569 1.13741 7.88376 1.06727
5158.71 1.1564 1.13924 7.89034 1.06735
5159.13 1.15757 1.13997 7.89775 1.06744
5159.55 1.15808 1.13939 7.90518 1.06753
5159.97 1.15652 1.13728 7.93232 1.06763
5160.4 1.15215 1.13349 7.96218 1.06774
5160.82 1.14464 1.12807 8.01419 1.06785
5161.24 1.13479 1.12119 8.074 1.06796
5161.66 1.12388 1.11304 8.15348 1.06809
5162.08 1.11227 1.10367 8.24591 1.06822
5162.51 1.09962 1.09301 8.34502 1.06835
5162.93 1.08575 1.08089 8.4513 1.0685
5163.35 1.07069 1.06725 8.5636 1.06864
5163.77 1.05456 1.05228 8.68535 1.0688
5164.2 1.03758 1.03639 8.81458 1.06896
5164.62 1.02003 1.02013 8.96337 1.06913
5165.04 1.00224 1.00403 9.11575 1.0693
5165.46 0.984468 0.988446 9.27005 1.06948
5165.89 0.96671 0.973517 9.42831 1.06966
5166.31 0.948924 0.959225 9.58777 1.06985
5166.73 0.931106 0.94549 9.75123 1.07005
5167.16 0.913381 0.932277 9.91313 1.07025
5167.58 0.896609 0.91968 10.078 1.07046
5168.0 0.881891 0.907887 10.2117 1.07067
5168.42 0.869849 0.897132 10.3336 1.07089
5168.85 0.8608 0.887641 10.4329 1.07112
5169.27 0.854713 0.879576 10.516 1.07135
5169.69 0.851247 0.873063 10.5738 1.07158
5170.12 0.849238 0.868231 10.6007 1.07182
5170.54 0.846638 0.865246 10.6227 1.07207
5170.96 0.843136 0.864309 10.6344 1.07232
5171.39 0.841232 0.865593 10.6346 1.07257
5171.81 0.843048 0.869154 10.5889 1.07283
5172.23 0.849316 0.874856 10.5381 1.0731
5172.65 0.8598 0.88234 10.4214 1.07336
5173.08 0.871767 0.891106 10.3066 1.07364
5173.5 0.88257 0.900623 10.1966 1.07392
5173.92 0.892319 0.910466 10.0885 1.0742
5174.35 0.901889 0.920441 9.98055 1.07449
5174.77 0.911852 0.93056 9.87397 1.07478
5175.19 0.922637 0.940935 9.76659 1.07507
5175.62 0.934481 0.951662 9.65989 1.07538
5176.04 0.947448 0.962642 9.54403 1.07568
5176.46 0.960599 0.973533 9.42217 1.07599
5176.89 0.972183 0.983799 9.32649 1.0763
5177.31 0.981093 0.992798 9.26169 1.07662
5177.74 0.986998 0.99994 9.21095 1.07694
5178.16 0.989878 1.00482 9.18891 1.07726
5178.58 0.990147 1.00727 9.17697 1.07759
5179.01 0.988277 1.00735 9.20636 1.07792
5179.43 0.984789 1.00533 9.23771 1.07826
5179.85 0.980106 1.00153 9.29287 1.07859
5180.28 0.974302 0.996326 9.34854 1.07894
5180.7 0.967412 0.990132 9.416 1.07928
5181.13 0.959593 0.983437 9.48484 1.07963
5181.55 0.951148 0.976803 9.56043 1.07998
5181.97 0.943113 0.970819 9.63822 1.08034
5182.4 0.936746 0.965978 9.68924 1.08069
5182.82 0.932446 0.962563 9.72884 1.08105
5183.25 0.930106 0.960635 9.75363 1.08142
5183.67 0.929653 0.960153 9.76757 1.08178
5184.09 0.931053 0.961071 9.76846 1.08215
5184.52 0.934459 0.963436 9.75385 1.08253
5184.94 0.940228 0.967402 9.7104 1.0829
5185.37 0.948491 0.973089 9.61082 1.08328
5185.79 0.959015 0.980495 9.50876 1.08366
5186.22 0.971425 0.989449 9.39394 1.08404
5186.64 0.985112 0.999643 9.28003 1.08442
5187.06 0.99935 1.01074 9.15726 1.08481
5187.49 1.01315 1.02239 9.0369 1.0852
5187.91 1.0258 1.03426 8.94524 1.08559
5188.34 1.03805 1.04597 8.8557 1.08598
5188.76 1.05083 1.05701 8.75763 1.08638
5189.19 1.0639 1.06691 8.65949 1.08677
5189.61 1.07651 1.07533 8.56214 1.08717
5190.04 1.08745 1.08223 8.4661 1.08757
5190.46 1.09539 1.08791 8.39502 1.08797
5190.88 1.10094 1.09282 8.33945 1.08838
5191.31 1.10611 1.09735 8.29703 1.08878
5191.73 1.11168 1.1016 8.26779 1.08919
5192.16 1.11714 1.10536 8.24282 1.0896
5192.58 1.12182 1.10837 8.22482 1.09001
5193.01 1.12491 1.11052 8.20656 1.09042
5193.43 1.12645 1.11205 8.18745 1.09083
5193.86 1.12811 1.1135 8.16746 1.09124
5194.28 1.13115 1.11551 8.14162 1.09165
5194.71 1.13533 1.11849 8.11584 1.09207
5195.13 1.14013 1.12247 8.08735 1.09249
5195.56 1.14503 1.12709 8.05901 1.0929
5195.98 1.14965 1.13187 8.02899 1.09332
5196.41 1.1542 1.13647 7.99894 1.09374
5196.83 1.15908 1.14082 7.9698 1.09415
5197.26 1.16445 1.14513 7.94103 1.09457
5197.68 1.17032 1.14964 7.91067 1.09499
5198.11 1.17642 1.15436 7.87961 1.09541
5198.54 1.18228 1.15901 7.84671 1.09583
5198.96 1.18702 1.16306 7.81238 1.09625
5199.39 1.18942 1.16594 7.79493 1.09667
5199.81 1.18918 1.16731 7.799 1.09709
5200.24 1.18709 1.16716 7.80732 1.09751
5200.66 1.18378 1.16573 7.82462 1.09793
5201.09 1.17956 1.16334 7.8446 1.09835
5201.51 1.17459 1.16021 7.87474 1.09877
5201.94 1.16868 1.15627 7.90689 1.09919
5202.36 1.16172 1.15131 7.95751 1.09961
5202.79 1.15382 1.1451 8.00863 1.10003
5203.22 1.14519 1.13755 8.06117 1.10045
5203.64 1.13619 1.12893 8.11427 1.10087
5204.07 1.12723 1.11974 8.16739 1.10128
5204.49 1.11882 1.11057 8.22097 1.1017
5204.92 1.11128 1.10189 8.26984 1.10212
5205.34 1.10314 1.09398 8.3174 1.10253
5205.77 1.09225 1.08692 8.38374 1.10294
5206.2 1.07967 1.08075 8.46155 1.10336
5206.62 1.06869 1.07558 8.5277 1.10377
5207.05 1.06255 1.07171 8.58288 1.10418
5207.47 1.06426 1.06942 8.58878 1.10459
5207.9 1.07224 1.06902 8.52379 1.105
5208.33 1.07917 1.07063 8.4797 1.1054
5208.75 1.08122 1.07417 8.48336 1.10581
5209.18 1.08107 1.07945 8.48429 1.10621
5209.61 1.08193 1.0862 8.47326 1.10661
5210.03 1.08661 1.09409 8.45704 1.10701
5210.46 1.09661 1.10285 8.37695 1.10741
5210.88 1.10921 1.11222 8.29798 1.10781
5211.31 1.12139 1.12198 8.22697 1.1082
5211.74 1.13255 1.13196 8.15712 1.1086
5212.16 1.14275 1.14199 8.09287 1.10899
5212.59 1.15227 1.15189 8.03017 1.10938
5213.02 1.16145 1.16151 7.97288 1.10976
5213.44 1.17092 1.17072 7.91781 1.11015
5213.87 1.18138 1.1794 7.85638 1.11053
5214.3 1.19251 1.18753 7.79169 1.11091
5214.72 1.20331 1.19511 7.73253 1.11129
5215.15 1.21309 1.20218 7.67831 1.11166
5215.58 1.22145 1.2088 7.62898 1.11203
5216.0 1.22834 1.21499 7.5862 1.1124
5216.43 1.23412 1.22071 7.55034 1.11277
5216.86 1.23897 1.22583 7.52965 1.11313
5217.28 1.24273 1.23025 7.50994 1.11349
5217.71 1.24537 1.23388 7.49395 1.11385
5218.14 1.24717 1.23677 7.47831 1.1142
5218.56 1.24845 1.23906 7.46586 1.11456
5218.99 1.24964 1.24095 7.45344 1.11491
5219.42 1.25107 1.24251 7.44185 1.11525
5219.85 1.25272 1.24365 7.4303 1.11559
5220.27 1.25429 1.24406 7.43072 1.11594
5220.7 1.25476 1.2434 7.43291 1.11627
5221.13 1.25285 1.24135 7.44781 1.11661
5221.55 1.24741 1.23787 7.46668 1.11694
5221.98 1.23768 1.23317 7.51148 1.11727
5222.41 1.22689 1.22763 7.57028 1.1176
5222.84 1.22059 1.22168 7.59912 1.11792
5223.26 1.21924 1.21557 7.6032 1.11824
5223.69 1.2188 1.20935 7.61364 1.11856
5224.12 1.21535 1.20298 7.63201 1.11888
5224.55 1.20533 1.19643 7.68194 1.11919
5224.97 1.18999 1.18993 7.79465 1.1195
5225.4 1.17776 1.18397 7.88591 1.11981
5225.83 1.17366 1.17912 7.90005 1.12012
5226.26 1.1744 1.17573 7.91192 1.12042
5226.68 1.1761 1.17384 7.9084 1.12072
5227.11 1.17588 1.17312 7.90516 1.12102
5227.54 1.17243 1.17312 7.91296 1.12132
5227.97 1.16967 1.1736 7.92078 1.12161
5228.39 1.1717 1.17463 7.89719 1.1219
5228.82 1.17757 1.17655 7.87103 1.12219
5229.25 1.18478 1.17967 7.84045 1.12248
5229.68 1.19174 1.18408 7.80902 1.12276
5230.11 1.19732 1.18951 7.77654 1.12305
5230.53 1.20178 1.1955 7.74375 1.12333
5230.96 1.20614 1.20162 7.71329 1.1236
5231.39 1.21118 1.20774 7.68433 1.12388
5231.82 1.21747 1.21395 7.64779 1.12415
5232.25 1.22513 1.22042 7.60406 1.12443
5232.67 1.2338 1.22719 7.55499 1.12469
5233.1 1.24266 1.23407 7.4981 1.12496
5233.53 1.2503 1.24075 7.45102 1.12523
5233.96 1.2561 1.24697 7.42533 1.12549
5234.39 1.26081 1.25267 7.4011 1.12575
5234.81 1.26506 1.25799 7.38222 1.12601
5235.24 1.26895 1.26321 7.36389 1.12627
5235.67 1.27238 1.26858 7.34992 1.12652
5236.1 1.27496 1.27423 7.33598 1.12678
5236.53 1.27665 1.28011 7.32091 1.12703
5236.96 1.27896 1.28607 7.30588 1.12728
5237.38 1.28348 1.29189 7.27822 1.12753
5237.81 1.28991 1.29739 7.24929 1.12777
5238.24 1.29724 1.30249 7.21744 1.12802
5238.67 1.30393 1.30721 7.18501 1.12826
5239.1 1.30837 1.31161 7.16531 1.1285
5239.53 1.31086 1.31573 7.15108 1.12874
5239.96 1.31275 1.31951 7.13912 1.12898
5240.39 1.3146 1.32277 7.12867 1.12921
5240.81 1.31628 1.32527 7.12049 1.12945
5241.24 1.31754 1.32684 7.1146 1.12968
5241.67 1.31805 1.32744 7.11242 1.12991
5242.1 1.31766 1.32717 7.1158 1.13014
5242.53 1.31649 1.32622 7.12098 1.13037
5242.96 1.31459 1.32478 7.13033 1.13059
5243.39 1.31193 1.32297 7.14081 1.13082
5243.82 1.3085 1.32077 7.15562 1.13104
5244.25 1.30436 1.3181 7.17135 1.13126
5244.67 1.29974 1.31486 7.19452 1.13149
5245.1 1.29521 1.31101 7.21778 1.1317
5245.53 1.29122 1.30671 7.23892 1.13192
5245.96 1.2874 1.30221 7.26015 1.13214
5246.39 1.28324 1.29777 7.28711 1.13235
5246.82 1.27847 1.29353 7.31478 1.13257
5247.25 1.27301 1.28939 7.35156 1.13278
5247.68 1.26732 1.28516 7.39067 1.13299
5248.11 1.26213 1.2807 7.41615 1.1332
5248.54 1.25792 1.27607 7.4363 1.13341
5248.97 1.25502 1.27156 7.44802 1.13362
5249.4 1.25347 1.26756 7.4546 1.13383
5249.83 1.25302 1.26439 7.45337 1.13403
5250.26 1.25299 1.26221 7.44514 1.13423
5250.69 1.25231 1.26094 7.44003 1.13444
5251.12 1.25096 1.26045 7.43902 1.13464
5251.54 1.25019 1.26061 7.43545 1.13484
5251.97 1.25091 1.26134 7.42686 1.13504
5252.4 1.25348 1.26269 7.41638 1.13524
5252.83 1.25788 1.26471 7.39999 1.13544
5253.26 1.26356 1.26747 7.38267 1.13564
5253.69 1.26972 1.27097 7.35977 1.13583
5254.12 1.27514 1.27517 7.33771 1.13603
5254.55 1.27887 1.27991 7.32831 1.13622
5254.98 1.2812 1.28493 7.31892 1.13642
5255.41 1.28286 1.28983 7.3154 1.13661
5255.84 1.2854 1.29418 7.31212 1.1368
5256.27 1.2901 1.29763 7.27556 1.137
5256.7 1.29553 1.29996 7.23429 1.13719
5257.13 1.29944 1.30117 7.21774 1.13738
5257.56 1.30109 1.30133 7.20829 1.13757
5257.99 1.30046 1.30055 7.21382 1.13775
5258.42 1.29811 1.29885 7.22631 1.13794
5258.85 1.29484 1.29611 7.24886 1.13813
5259.28 1.29033 1.29208 7.2785 1.13832
5259.71 1.28336 1.28652 7.32125 1.1385
5260.15 1.27384 1.2792 7.37749 1.13869
5260.58 1.26279 1.27008 7.43767 1.13888
5261.01 1.25136 1.25936 7.50341 1.13906
5261.44 1.24082 1.24739 7.56496 1.13925
5261.87 1.23139 1.23463 7.61621 1.13943
5262.3 1.22161 1.22147 7.67161 1.13961
5262.73 1.21034 1.20803 7.7401 1.1398
5263.16 1.19741 1.19429 7.81091 1.13998
5263.59 1.1829 1.18018 7.89167 1.14016
5264.02 1.16734 1.16583 7.97429 1.14034
5264.45 1.15156 1.15169 8.07046 1.14053
5264.88 1.13739 1.13843 8.16839 1.14071
5265.31 1.12645 1.12665 8.23116 1.14089
5265.74 1.11844 1.11666 8.29299 1.14107
5266.17 1.1125 1.10833 8.33826 1.14125
5266.6 1.10775 1.10122 8.38126 1.14143
5267.04 1.10341 1.09497 8.40838 1.14161
5267.47 1.09945 1.08952 8.43102 1.1418
5267.9 1.09623 1.08533 8.44898 1.14198
5268.33 1.09409 1.08315 8.46485 1.14216
5268.76 1.09339 1.08357 8.47183 1.14234
5269.19 1.09435 1.08675 8.47293 1.14252
5269.62 1.09712 1.09217 8.46242 1.1427
5270.05 1.10147 1.0989 8.44106 1.14288
5270.48 1.1068 1.10604 8.40482 1.14306
5270.92 1.11329 1.11317 8.349 1.14324
5271.35 1.12196 1.12049 8.28549 1.14342
5271.78 1.13339 1.12862 8.20694 1.1436
5272.21 1.14731 1.13822 8.12274 1.14378
5272.64 1.16258 1.14959 8.02033 1.14396
5273.07 1.17653 1.16246 7.92387 1.14415
5273.5 1.18774 1.17625 7.84886 1.14433
5273.94 1.19834 1.19032 7.77491 1.14451
5274.37 1.21042 1.20421 7.70205 1.14469
5274.8 1.22435 1.21772 7.6302 1.14487
5275.23 1.23965 1.23076 7.55826 1.14506
5275.66 1.25382 1.24321 7.48733 1.14524
5276.09 1.26443 1.25484 7.43826 1.14542
5276.52 1.27222 1.26536 7.3917 1.1456
5276.96 1.27885 1.27457 7.35104 1.14579
5277.39 1.2851 1.28239 7.31187 1.14597
5277.82 1.29136 1.28886 7.27783 1.14615
5278.25 1.29747 1.29412 7.2457 1.14633
5278.68 1.30295 1.29837 7.22156 1.14652
5279.12 1.30747 1.30184 7.20158 1.1467
5279.55 1.31079 1.30479 7.18758 1.14688
5279.98 1.31293 1.30746 7.17799 1.14706
5280.41 1.31413 1.30997 7.1724 1.14725
5280.84 1.3148 1.31232 7.17095 1.14743
5281.28 1.31553 1.31441 7.17138 1.14761
5281.71 1.31654 1.31613 7.17455 1.14779
5282.14 1.31761 1.31757 7.17438 1.14797
5282.57 1.31869 1.31898 7.16726 1.14816
5283.0 1.32014 1.3208 7.15814 1.14834
5283.44 1.3224 1.32343 7.14276 1.14852
5283.87 1.326 1.32703 7.1255 1.1487
5284.3 1.33111 1.33153 7.09824 1.14888
5284.73 1.33694 1.33663 7.07095 1.14906
5285.17 1.34276 1.34202 7.04173 1.14924
5285.6 1.3486 1.3476 7.01269 1.14942
5286.03 1.35464 1.35344 6.9827 1.1496
5286.46 1.36127 1.35976 6.9529 1.14978
5286.9 1.36875 1.36674 6.92333 1.14996
5287.33 1.37668 1.37432 6.89395 1.15014
5287.76 1.38448 1.38215 6.85987 1.15032
5288.19 1.3919 1.38971 6.82509 1.15049
5288.63 1.3988 1.39644 6.7905 1.15067
5289.06 1.40507 1.40201 6.75614 1.15085
5289.49 1.41059 1.40631 6.72725 1.15102
5289.93 1.41506 1.4094 6.70103 1.1512
5290.36 1.41806 1.41144 6.68851 1.15138
5290.79 1.41935 1.41247 6.6852 1.15155
5291.22 1.41883 1.41243 6.69007 1.15172
5291.66 1.41647 1.41118 6.7026 1.1519
5292.09 1.41236 1.40862 6.72498 1.15207
5292.52 1.40673 1.40474 6.76015 1.15224
5292.96 1.39995 1.39968 6.79601 1.15242
5293.39 1.39236 1.39367 6.8329 1.15259
5293.82 1.38425 1.38691 6.8706 1.15276
5294.25 1.37585 1.37959 6.90992 1.15293
5294.69 1.36732 1.37184 6.95029 1.1531
5295.12 1.35864 1.36375 6.99378 1.15327
5295.55 1.34947 1.35548 7.0377 1.15344
5295.99 1.33972 1.3473 7.08211 1.1536
5296.42 1.33014 1.33954 7.12644 1.15377
5296.85 1.32156 1.33254 7.16134 1.15394
5297.29 1.3147 1.32658 7.1965 1.1541
5297.72 1.31013 1.32178 7.21245 1.15427
5298.15 1.30802 1.31809 7.22789 1.15443
5298.59 1.30826 1.31546 7.225 1.1546
5299.02 1.30987 1.31385 7.21999 1.15476
5299.46 1.31168 1.31336 7.21541 1.15492
5299.89 1.31313 1.31424 7.21093 1.15508
5300.32 1.3141 1.31671 7.21107 1.15524
5300.76 1.31589 1.32087 7.2128 1.1554
5301.19 1.32045 1.32665 7.19151 1.15556
5301.62 1.32796 1.33374 7.15903 1.15571
5302.06 1.33754 1.34172 7.1211 1.15587
5302.49 1.34829 1.35018 7.07963 1.15602
5302.93 1.35938 1.3588 7.03445 1.15618
5303.36 1.37014 1.3674 6.98596 1.15633
5303.79 1.38006 1.37586 6.94233 1.15648
5304.23 1.38879 1.38408 6.9045 1.15663
5304.66 1.39618 1.39197 6.86951 1.15678
5305.1 1.40223 1.39946 6.83906 1.15693
5305.53 1.40714 1.40654 6.81103 1.15708
5305.96 1.41131 1.41325 6.7884 1.15723
5306.4 1.41543 1.4196 6.76714 1.15737
5306.83 1.41983 1.42554 6.7503 1.15752
5307.27 1.42409 1.43094 6.73365 1.15766
5307.7 1.4278 1.43563 6.71772 1.1578
5308.13 1.43086 1.43944 6.70188 1.15794
5308.57 1.43332 1.44231 6.68666 1.15808
5309.0 1.43562 1.4443 6.67156 1.15822
5309.44 1.43809 1.44554 6.66576 1.15836
5309.87 1.44037 1.44619 6.65996 1.1585
5310.31 1.44202 1.44636 6.65884 1.15863
5310.74 1.44289 1.44611 6.65805 1.15876
5311.18 1.44299 1.44543 6.66131 1.1589
5311.61 1.44259 1.44436 6.66522 1.15903
5312.04 1.44203 1.44299 6.66701 1.15916
5312.48 1.44139 1.44142 6.66824 1.15929
5312.91 1.44061 1.43971 6.67114 1.15941
5313.35 1.43944 1.43777 6.67468 1.15954
5313.78 1.43745 1.43546 6.68046 1.15966
5314.22 1.43403 1.43263 6.68745 1.15979
5314.65 1.42851 1.42926 6.70999 1.15991
5315.09 1.42181 1.42552 6.74393 1.16003
5315.52 1.41599 1.42167 6.76979 1.16014
5315.96 1.41212 1.41799 6.78782 1.16026
5316.39 1.4102 1.41465 6.80025 1.16038
5316.83 1.40956 1.41167 6.80556 1.16049
5317.26 1.40878 1.40893 6.81023 1.1606
5317.7 1.40717 1.40618 6.81382 1.16071
5318.13 1.40505 1.40316 6.82077 1.16082
5318.57 1.40264 1.39964 6.83542 1.16093
5319.0 1.39985 1.39553 6.85185 1.16104
5319.44 1.3965 1.39087 6.8739 1.16114
5319.87 1.39231 1.38583 6.89538 1.16124
5320.31 1.38718 1.38056 6.91354 1.16134
5320.74 1.38138 1.37513 6.93281 1.16144
5321.18 1.37518 1.36945 6.9613 1.16154
5321.61 1.36863 1.36326 6.9902 1.16164
5322.05 1.36175 1.35631 7.02549 1.16173
5322.49 1.35443 1.34843 7.06106 1.16182
5322.92 1.3466 1.33967 7.09647 1.16192
5323.36 1.33837 1.33027 7.13214 1.162
5323.79 1.32987 1.32053 7.17456 1.16209
5324.23 1.32093 1.3107 7.21809 1.16218
5324.66 1.31131 1.30088 7.26796 1.16226
5325.1 1.30082 1.29107 7.31955 1.16234
5325.53 1.28935 1.28132 7.38503 1.16242
5325.97 1.2777 1.27188 7.45548 1.1625
5326.41 1.26707 1.26326 7.50196 1.16258
5326.84 1.2588 1.25604 7.53827 1.16265
5327.28 1.25426 1.25069 7.5552 1.16272
5327.71 1.25454 1.24738 7.56103 1.16279
5328.15 1.26032 1.24595 7.53247 1.16286
5328.59 1.26824 1.24605 7.47875 1.16293
5329.02 1.27182 1.24735 7.45939 1.16299
5329.46 1.26946 1.24972 7.47283 1.16305
5329.89 1.26435 1.25324 7.49217 1.16312
5330.33 1.26087 1.25812 7.51894 1.16317
5330.77 1.26435 1.26452 7.51418 1.16323
5331.2 1.27572 1.27248 7.45838 1.16329
5331.64 1.28982 1.28183 7.40365 1.16334
5332.07 1.30289 1.29224 7.35049 1.16339
5332.51 1.31419 1.30325 7.29858 1.16344
5332.95 1.32361 1.31436 7.24916 1.16349
5333.38 1.33175 1.32508 7.20173 1.16353
5333.82 1.33924 1.33503 7.16101 1.16358
5334.26 1.3467 1.34386 7.1213 1.16362
5334.69 1.35436 1.3514 7.0864 1.16366
5335.13 1.36145 1.35755 7.05261 1.1637
5335.57 1.36704 1.36229 7.03074 1.16374
5336.0 1.37019 1.36569 7.00918 1.16378
5336.44 1.3704 1.36783 7.02468 1.16382
5336.88 1.36892 1.36875 7.04023 1.16385
5337.31 1.36728 1.36858 7.05002 1.16388
5337.75 1.36621 1.36747 7.05949 1.16392
5338.19 1.36612 1.3657 7.06729 1.16395
5338.62 1.36709 1.36365 7.07488 1.16398
5339.06 1.36891 1.36163 7.08361 1.164
5339.5 1.37018 1.35982 7.09261 1.16403
5339.93 1.36921 1.3581 7.10489 1.16406
5340.37 1.36613 1.35625 7.11823 1.16408
5340.81 1.36198 1.3541 7.12981 1.16411
5341.24 1.35791 1.35169 7.14066 1.16413
5341.68 1.35505 1.34937 7.1435 1.16415
5342.12 1.35289 1.34758 7.14188 1.16417
5342.56 1.3499 1.34663 7.14599 1.16419
5342.99 1.34609 1.34656 7.15419 1.16421
5343.43 1.34274 1.34713 7.16013 1.16423
5343.87 1.34103 1.34802 7.16402 1.16424
5344.3 1.34201 1.34903 7.1577 1.16426
5344.74 1.34545 1.35016 7.13973 1.16428
5345.18 1.34969 1.35155 7.12543 1.16429
5345.62 1.35335 1.35336 7.1164 1.1643
5346.05 1.35551 1.3556 7.10995 1.16432
5346.49 1.35559 1.35814 7.10828 1.16433
5346.93 1.35351 1.36085 7.1103 1.16434
5347.37 1.35049 1.36363 7.12126 1.16435
5347.8 1.34999 1.36656 7.12454 1.16436
5348.24 1.35384 1.36979 7.10295 1.16437
5348.68 1.3603 1.37345 7.08081 1.16438
5349.12 1.36724 1.37755 7.05583 1.16439
5349.55 1.37263 1.38205 7.03289 1.1644
5349.99 1.37572 1.38687 7.02371 1.16441
5350.43 1.37925 1.392 7.01255 1.16442
5350.87 1.38562 1.39749 6.97351 1.16443
5351.3 1.39415 1.40347 6.93475 1.16443
5351.74 1.40353 1.40998 6.8924 1.16444
5352.18 1.41242 1.41699 6.85044 1.16445
5352.62 1.41981 1.42435 6.81935 1.16446
5353.06 1.42631 1.43183 6.78896 1.16446
5353.49 1.43278 1.43919 6.75978 1.16447
5353.93 1.43918 1.44626 6.73089 1.16448
5354.37 1.44516 1.45295 6.70375 1.16448
5354.81 1.45047 1.45921 6.67705 1.16449
5355.25 1.455 1.46501 6.65351 1.1645
5355.68 1.45955 1.47024 6.63086 1.1645
5356.12 1.46517 1.47473 6.61082 1.16451
5356.56 1.47121 1.47826 6.59176 1.16452
5357.0 1.47619 1.48071 6.58036 1.16452
5357.44 1.47887 1.48207 6.57251 1.16453
5357.88 1.47832 1.48243 6.58036 1.16454
5358.31 1.47534 1.48197 6.59749 1.16455
5358.75 1.47185 1.48074 6.6091 1.16455
5359.19 1.46868 1.47879 6.61663 1.16456
5359.63 1.46574 1.47612 6.62523 1.16457
5360.07 1.4628 1.47279 6.63479 1.16458
5360.51 1.45961 1.46886 6.64957 1.16459
5360.95 1.45619 1.46443 6.67024 1.1646
5361.38 1.45292 1.45943 6.68886 1.16461
5361.82 1.44955 1.45378 6.70459 1.16462
5362.26 1.44508 1.44742 6.72325 1.16463
5362.7 1.43872 1.44046 6.74692 1.16464
5363.14 1.43007 1.43315 6.77778 1.16465
5363.58 1.41994 1.4258 6.82416 1.16467
5364.02 1.41105 1.41861 6.86552 1.16468
5364.46 1.40486 1.41153 6.89204 1.1647
5364.89 1.40013 1.40435 6.91894 1.16471
5365.33 1.39538 1.39687 6.94683 1.16473
5365.77 1.38921 1.38898 6.97751 1.16474
5366.21 1.38082 1.38083 7.02174 1.16476
5366.65 1.37085 1.37271 7.06619 1.16478
5367.09 1.36032 1.36495 7.10951 1.1648
5367.53 1.35071 1.35777 7.15241 1.16482
5367.97 1.34344 1.35124 7.18383 1.16484
5368.41 1.3394 1.34535 7.21495 1.16486
5368.85 1.3387 1.34013 7.21663 1.16489
5369.29 1.33897 1.33574 7.2183 1.16491
5369.73 1.33783 1.33248 7.23263 1.16494
5370.16 1.33559 1.33059 7.24742 1.16496
5370.6 1.33331 1.33019 7.25964 1.16499
5371.04 1.33209 1.33117 7.27168 1.16502
5371.48 1.33281 1.33326 7.26989 1.16505
5371.92 1.33489 1.33619 7.26606 1.16508
5372.36 1.33744 1.33986 7.25502 1.16511
5372.8 1.34082 1.34431 7.24246 1.16515
5373.24 1.34591 1.34969 7.21732 1.16518
5373.68 1.35327 1.35604 7.18869 1.16522
5374.12 1.36313 1.36326 7.13483 1.16526
5374.56 1.37399 1.37106 7.07225 1.1653
5375.0 1.38355 1.37912 7.02759 1.16534
5375.44 1.39127 1.38718 6.99126 1.16538
5375.88 1.39775 1.39508 6.96199 1.16543
5376.32 1.40363 1.40266 6.93677 1.16547
5376.76 1.40953 1.40971 6.91723 1.16552
5377.2 1.41512 1.41591 6.90164 1.16557
5377.64 1.41934 1.42092 6.88453 1.16562
5378.08 1.42202 1.42458 6.86616 1.16567
5378.52 1.4238 1.42695 6.8497 1.16573
5378.96 1.42532 1.42833 6.83516 1.16578
5379.4 1.4271 1.42911 6.82633 1.16584
5379.84 1.42883 1.42956 6.82435 1.1659
5380.28 1.4293 1.42975 6.82768 1.16596
5380.72 1.42807 1.42959 6.83872 1.16603
5381.16 1.42579 1.429 6.84965 1.16609
5381.6 1.4232 1.42802 6.86038 1.16616
5382.04 1.42106 1.42684 6.86697 1.16623
5382.48 1.41967 1.42567 6.86471 1.1663
5382.92 1.41853 1.42459 6.86592 1.16638
5383.36 1.41735 1.42348 6.8762 1.16645
5383.8 1.41635 1.42207 6.88663 1.16653
5384.24 1.41573 1.42014 6.89751 1.16661
5384.68 1.41563 1.4177 6.90627 1.16669
5385.12 1.41566 1.41498 6.90589 1.16678
5385.56 1.41427 1.41232 6.90749 1.16687
5386.01 1.41057 1.40994 6.92063 1.16696
5386.45 1.40587 1.40781 6.9337 1.16705
5386.89 1.40179 1.40567 6.94588 1.16714
5387.33 1.39984 1.40318 6.95687 1.16724
5387.77 1.40043 1.4001 6.94961 1.16734
5388.21 1.4003 1.39639 6.94323 1.16743
5388.65 1.39642 1.39227 6.97742 1.16754
5389.09 1.38942 1.38803 7.01186 1.16764
5389.53 1.38093 1.38387 7.05572 1.16775
5389.97 1.37303 1.37981 7.10019 1.16785
5390.41 1.3674 1.37562 7.12199 1.16796
5390.86 1.36317 1.371 7.14237 1.16807
5391.3 1.35892 1.36572 7.16065 1.16819
5391.74 1.35442 1.35983 7.17875 1.1683
5392.18 1.34987 1.35358 7.19592 1.16841
5392.62 1.34558 1.34745 7.21297 1.16853
5393.06 1.34192 1.34184 7.22955 1.16865
5393.5 1.33905 1.33696 7.24606 1.16877
5393.94 1.33698 1.33275 7.26366 1.16889
5394.38 1.33508 1.32898 7.28162 1.16902
5394.83 1.3324 1.32544 7.3005 1.16914
5395.27 1.32808 1.32214 7.31977 1.16927
5395.71 1.32155 1.31931 7.34088 1.16939
5396.15 1.31497 1.31726 7.36284 1.16952
5396.59 1.31189 1.31616 7.36742 1.16965
5397.03 1.31295 1.31592 7.36307 1.16978
5397.48 1.31688 1.31616 7.35204 1.16991
5397.92 1.32161 1.31644 7.33699 1.17005
5398.36 1.32465 1.31648 7.32784 1.17018
5398.8 1.32551 1.31624 7.32283 1.17031
5399.24 1.32536 1.31592 7.32106 1.17045
5399.68 1.32481 1.3157 7.32196 1.17059
5400.13 1.32403 1.3156 7.32473 1.17072
5400.57 1.32305 1.31544 7.32931 1.17086
5401.01 1.32185 1.31491 7.33548 1.171
5401.45 1.32038 1.31373 7.34344 1.17114
5401.89 1.31856 1.31181 7.35344 1.17128
5402.33 1.31639 1.30924 7.36609 1.17142
5402.78 1.31393 1.30628 7.3802 1.17156
5403.22 1.31127 1.30317 7.39648 1.1717
5403.66 1.30853 1.30007 7.41506 1.17185
5404.1 1.30561 1.29703 7.43763 1.17199
5404.55 1.30212 1.29405 7.46097 1.17213
5404.99 1.29791 1.2911 7.48579 1.17228
5405.43 1.29324 1.28827 7.51048 1.17242
5405.87 1.2885 1.28567 7.53465 1.17256
5406.31 1.28429 1.28349 7.55364 1.17271
5406.76 1.28126 1.2819 7.55751 1.17285
5407.2 1.28012 1.28114 7.55848 1.173
5407.64 1.28131 1.28145 7.54938 1.17314
5408.08 1.28476 1.28306 7.53825 1.17329
5408.53 1.29015 1.28614 7.51849 1.17343
5408.97 1.29682 1.29071 7.49565 1.17358
5409.41 1.30414 1.29656 7.45608 1.17372
5409.85 1.3116 1.30336 7.41721 1.17387
5410.3 1.31882 1.31072 7.38147 1.17401
5410.74 1.32569 1.31835 7.34618 1.17416
5411.18 1.33219 1.32614 7.31298 1.1743
5411.63 1.33847 1.33412 7.27946 1.17445
5412.07 1.34486 1.34233 7.23721 1.17459
5412.51 1.35204 1.35078 7.19523 1.17473
5412.95 1.36059 1.35939 7.14966 1.17488
5413.4 1.37029 1.36798 7.10452 1.17502
5413.84 1.38061 1.37642 7.05685 1.17516
5414.28 1.39033 1.38456 7.00963 1.1753
5414.73 1.39838 1.39227 6.98718 1.17544
5415.17 1.405 1.39943 6.96583 1.17558
5415.61 1.41076 1.40588 6.9446 1.17572
5416.05 1.41582 1.41144 6.92346 1.17586
5416.5 1.42015 1.41606 6.90243 1.176
5416.94 1.42337 1.41976 6.8815 1.17614
5417.38 1.42511 1.42263 6.87429 1.17627
5417.83 1.42611 1.42481 6.8692 1.17641
5418.27 1.42736 1.42638 6.86246 1.17654
5418.71 1.42902 1.42741 6.8554 1.17668
5419.16 1.43077 1.42793 6.84644 1.17681
5419.6 1.43114 1.42799 6.83703 1.17694
5420.04 1.42854 1.42764 6.85708 1.17707
5420.49 1.4244 1.42689 6.88578 1.1772
5420.93 1.42143 1.42572 6.90016 1.17733
5421.37 1.42086 1.42413 6.90966 1.17746
5421.82 1.42295 1.42219 6.9 1.17758
5422.26 1.42577 1.42011 6.88286 1.17771
5422.71 1.42646 1.41813 6.88077 1.17783
5423.15 1.42501 1.41641 6.88548 1.17795
5423.59 1.42315 1.41493 6.89118 1.17807
5424.04 1.42183 1.41352 6.8974 1.17819
5424.48 1.42142 1.41196 6.9034 1.17831
5424.92 1.42083 1.41009 6.90926 1.17843
5425.37 1.41814 1.40791 6.92538 1.17854
5425.81 1.41325 1.40542 6.94828 1.17865
5426.26 1.40751 1.40257 6.97102 1.17876
5426.7 1.40198 1.39927 6.99365 1.17887
5427.14 1.39745 1.39549 7.01398 1.17898
5427.59 1.39396 1.39139 7.0324 1.17909
5428.03 1.39097 1.38731 7.05023 1.17919
5428.48 1.38809 1.3836 7.06751 1.17929
5428.92 1.38512 1.38037 7.08289 1.17939
5429.36 1.38187 1.37745 7.09634 1.17949
5429.81 1.37818 1.37438 7.10635 1.17958
5430.25 1.37389 1.37078 7.11247 1.17968
5430.7 1.36891 1.36651 7.12932 1.17977
5431.14 1.36333 1.36184 7.15971 1.17986
5431.59 1.35742 1.35728 7.19046 1.17995
5432.03 1.35157 1.35345 7.22162 1.18003
5432.48 1.34638 1.3508 7.24824 1.18012
5432.92 1.34307 1.34949 7.26766 1.1802
5433.36 1.34368 1.34949 7.2692 1.18027
5433.81 1.34846 1.35062 7.24024 1.18035
5434.25 1.35507 1.35276 7.20865 1.18042
5434.7 1.36115 1.35588 7.17201 1.18049
5435.14 1.36463 1.36003 7.14064 1.18056
5435.59 1.36563 1.36521 7.11996 1.18063
5436.03 1.36768 1.37134 7.09366 1.18069
5436.48 1.37303 1.37818 7.05409 1.18075
5436.92 1.38119 1.38547 7.01284 1.18081
5437.37 1.39116 1.39298 6.96672 1.18086
5437.81 1.40151 1.40058 6.92051 1.18092
5438.26 1.41134 1.40821 6.87319 1.18097
5438.7 1.42079 1.41586 6.83049 1.18101
5439.15 1.42977 1.42341 6.80215 1.18106
5439.59 1.43745 1.43063 6.77636 1.1811
5440.04 1.44293 1.43715 6.75987 1.18113
5440.48 1.44537 1.4425 6.74666 1.18117
5440.93 1.44491 1.44628 6.7478 1.1812
5441.37 1.44391 1.44823 6.74928 1.18123
5441.82 1.44414 1.44832 6.75253 1.18125
5442.26 1.44504 1.44671 6.75634 1.18127
5442.71 1.44543 1.44369 6.76352 1.18129
5443.15 1.4434 1.43962 6.77294 1.18131
5443.6 1.43801 1.43485 6.79883 1.18132
5444.04 1.43139 1.42966 6.82465 1.18133
5444.49 1.4256 1.42428 6.84854 1.18134
5444.93 1.42091 1.41885 6.87248 1.18134
5445.38 1.41703 1.41348 6.89571 1.18134
5445.83 1.41289 1.40825 6.91943 1.18134
5446.27 1.40764 1.40326 6.94929 1.18133
5446.72 1.40149 1.39861 6.97939 1.18132
5447.16 1.39496 1.39439 7.0106 1.18131
5447.61 1.38865 1.39072 7.04201 1.18129
5448.05 1.38327 1.38768 7.07306 1.18128
5448.5 1.37971 1.38528 7.10431 1.18125
5448.95 1.37851 1.3835 7.10137 1.18123
5449.39 1.37862 1.38224 7.09842 1.1812
5449.84 1.37875 1.38133 7.09927 1.18118
5450.28 1.37843 1.38065 7.10019 1.18114
5450.73 1.3776 1.38014 7.10464 1.18111
5451.18 1.3769 1.3798 7.10923 1.18107
5451.62 1.37694 1.37964 7.10437 1.18103
5452.07 1.37695 1.37961 7.09896 1.18099
5452.51 1.37594 1.37955 7.10348 1.18094
5452.96 1.37361 1.37927 7.10879 1.18089
5453.41 1.37006 1.37866 7.12551 1.18084
5453.85 1.36619 1.37781 7.14344 1.18079
5454.3 1.36305 1.37698 7.15222 1.18073
5454.74 1.36107 1.37646 7.15991 1.18067
5455.19 1.36042 1.37642 7.15325 1.18061
5455.64 1.36102 1.3768 7.14456 1.18055
5456.08 1.3626 1.37736 7.11682 1.18048
5456.53 1.3644 1.37786 7.08614 1.18042
5456.98 1.36563 1.37815 7.08113 1.18035
5457.42 1.36642 1.37827 7.08088 1.18027
5457.87 1.36728 1.37844 7.07991 1.1802
5458.32 1.36855 1.37893 7.07879 1.18012
5458.76 1.37036 1.37996 7.07087 1.18004
5459.21 1.37222 1.38156 7.0614 1.17996
5459.66 1.37346 1.3835 7.06158 1.17987
5460.1 1.37463 1.38541 7.06423 1.17978
5460.55 1.37674 1.38692 7.06482 1.1797
5461.0 1.38029 1.38787 7.06483 1.1796
5461.44 1.3852 1.38838 7.05605 1.17951
5461.89 1.38853 1.38876 7.04464 1.17941
5462.34 1.38661 1.38926 7.04306 1.17932
5462.78 1.3813 1.38995 7.04469 1.17922
5463.23 1.37722 1.3906 7.04633 1.17912
5463.68 1.37828 1.39087 7.04798 1.17901
5464.12 1.38699 1.39059 7.04159 1.17891
5464.57 1.39648 1.38992 7.03219 1.1788
5465.02 1.39589 1.38934 7.03216 1.17869
5465.47 1.38575 1.38933 7.03589 1.17858
5465.91 1.37323 1.39019 7.02097 1.17846
5466.36 1.36667 1.39176 6.99816 1.17835
5466.81 1.37383 1.39354 6.8864 1.17823
5467.26 1.3892 1.39487 6.7384 1.17811
5467.7 1.39997 1.39526 6.2257 1.17799
5468.15 1.40229 1.39458 5.62092 1.17787
5468.6 1.39821 1.39315 4.9889 1.17774
5469.04 1.39237 1.39148 4.41138 1.17762
5469.49 1.39057 1.38999 4.00358 1.17749
5469.94 1.39325 1.38872 3.68528 1.17736
5470.39 1.39725 1.3873 3.47759 1.17723
5470.83 1.40019 1.38515 3.32599 1.17709
5471.28 1.40025 1.38188 3.23691 1.17696
5471.73 1.39572 1.3775 3.18165 1.17682
5472.18 1.38521 1.37246 3.2474 1.17668
5472.63 1.37082 1.36739 3.39426 1.17655
5473.07 1.35705 1.36275 3.6148 1.1764
5473.52 1.3463 1.35862 3.90327 1.17626
5473.97 1.33926 1.35477 4.29455 1.17612
5474.42 1.33491 1.35083 4.80054 1.17597
5474.86 1.33111 1.3467 5.26464 1.17583
5475.31 1.32787 1.3426 5.6935 1.17568
5475.76 1.32681 1.33897 6.08327 1.17553
5476.21 1.3284 1.33622 6.44133 1.17538
5476.66 1.3321 1.33442 6.71615 1.17523
5477.1 1.336 1.33335 6.91901 1.17507
5477.55 1.33729 1.33257 7.05267 1.17492
5478.0 1.33577 1.33182 7.12883 1.17476
5478.45 1.33346 1.33109 7.18623 1.17461
5478.9 1.33189 1.3307 7.22825 1.17445
5479.35 1.33205 1.33111 7.24861 1.17429
5479.79 1.33406 1.33268 7.25094 1.17413
5480.24 1.33727 1.33547 7.24105 1.17397
5480.69 1.34134 1.33925 7.22086 1.17381
5481.14 1.34624 1.34188 7.19709 1.17364
5481.59 1.35179 1.34617 7.17025 1.17348
5482.04 1.35768 1.35037 7.13978 1.17331
5482.49 1.36321 1.35422 7.10612 1.17315
5482.93 1.3674 1.35776 7.08615 1.17298
5483.38 1.37003 1.36114 7.07863 1.17281
5483.83 1.3717 1.36436 7.0735 1.17264
5484.28 1.37305 1.36735 7.07064 1.17247
5484.73 1.37481 1.36998 7.06635 1.1723
5485.18 1.37782 1.37218 7.06068 1.17213
5485.63 1.38297 1.37411 7.0465 1.17195
5486.07 1.38978 1.37608 7.02398 1.17178
5486.52 1.39643 1.37827 7.00192 1.17161
5486.97 1.40106 1.38052 6.9803 1.17143
5487.42 1.40197 1.38222 6.97004 1.17126
5487.87 1.39979 1.38193 6.97139 1.17108
5488.32 1.39745 1.37638 0.0 1.1709
5488.77 1.39643 1.3741 0.0 1.17072
5489.22 1.39657 1.37287 0.0 1.17055
5489.67 1.39728 1.37196 0.0 1.17037
5490.12 1.39757 1.3711 0.0 1.17019
5490.57 1.39729 1.36993 0.0 1.17001
5491.01 1.39713 1.36778 0.0 1.16983
5491.46 1.39752 1.3638 0.0 1.16965
5491.91 1.39852 1.35766 0.0 1.16947
5492.36 1.40005 1.35016 0.0 1.16928
5492.81 1.40188 1.3427 0.0 1.1691
5493.26 1.40391 1.33601 0.0 1.16892
5493.71 1.40615 1.32941 0.0 1.16874
5494.16 1.40844 1.32107 0.0 1.16855
5494.61 1.41047 1.30817 0.0 1.16837
5495.06 1.41176 1.28781 0.0 1.16819
5495.51 1.41167 1.25963 0.0 1.168
5495.96 1.41035 1.22654 0.0 1.16782
5496.41 1.40875 1.19212 0.0 1.16763
5496.86 1.40751 1.15738 0.0 1.16745
5497.31 1.40688 1.11977 0.0 1.16726
5497.76 1.40666 1.07503 0.0 1.16708
5498.21 1.40623 1.0206 0.0 1.16689
5498.66 1.40526 0.957888 0.0 1.16671
5499.11 1.40377 0.891751 0.0 1.16652
5499.56 1.4019 0.827246 0.0 1.16634
